workerCounter,assignmentId,workerId,hitId,trial type,set,global index,reaction time,response1,response2,responseLoc1,responseLoc2,stimulus1,stimulus2,stimulus3
1,3VD82FOHKRU4ID8XYQCQMRG5RTJOCZ,A1NQLW1UROVH81,37AQKJ12TXUZU2HNQQODGRRCUFVTTU,1,,6,7438,2kFemale/F19,2kFemale/F18,1,0,2kFemale/F18,2kFemale/F19,2kFemale/F16
1,3VD82FOHKRU4ID8XYQCQMRG5RTJOCZ,A1NQLW1UROVH81,37AQKJ12TXUZU2HNQQODGRRCUFVTTU,1,,12,7432,2kFemale/F10,2kFemale/F10,http://52.23.229.132/2kFemale/F10.jpg,http://52.23.229.132/2kFemale/F10.jpg,http://52.23.229.132/2kFemale/F10.jpg,http://52.23.229.132/2kFemale/F10.jpg,http://52.23.229.132/2kFemale/F10.jpg,http://52.23.229.132/2kFemale/F10.jpg,http://52.23.229.132/2kFemale/F10.jpg,http://52.23.229.132/2kFemale/F17.jpg,1,2,2kFemale/F18,2kFemale/F10,2kFemale/F17
1,3VD82FOHKRU4ID8XYQCQMRG5RTJOCZ,A1NQLW1UROVH81,37AQKJ12TXUZU2HNQQODGRRCUFVTTU,1,,13,6170,2kFemale/F12,2kFemale/F20,1,2,2kFemale/F16,2kFemale/F12,2kFemale/F20
1,3VD82FOHKRU4ID8XYQCQMRG5RTJOCZ,A1NQLW1UROVH81,37AQKJ12TXUZU2HNQQODGRRCUFVTTU,2,,15,3591,2kFemale/F716,2kFemale/F243,1,2,2kFemale/F214,2kFemale/F716,2kFemale/F243
1,3VD82FOHKRU4ID8XYQCQMRG5RTJOCZ,A1NQLW1UROVH81,37AQKJ12TXUZU2HNQQODGRRCUFVTTU,2,,16,5396,2kFemale/F524,2kFemale/F874,0,1,2kFemale/F524,2kFemale/F874,2kFemale/F272
1,3VD82FOHKRU4ID8XYQCQMRG5RTJOCZ,A1NQLW1UROVH81,37AQKJ12TXUZU2HNQQODGRRCUFVTTU,2,,17,5349,2kFemale/F248,2kFemale/F762,0,1,2kFemale/F248,2kFemale/F762,2kFemale/F411
1,3VD82FOHKRU4ID8XYQCQMRG5RTJOCZ,A1NQLW1UROVH81,37AQKJ12TXUZU2HNQQODGRRCUFVTTU,2,,18,5977,2kFemale/F657,2kFemale/F712,1,2,2kFemale/F624,2kFemale/F657,2kFemale/F712
1,3VD82FOHKRU4ID8XYQCQMRG5RTJOCZ,A1NQLW1UROVH81,37AQKJ12TXUZU2HNQQODGRRCUFVTTU,2,,19,2542,2kFemale/F524,2kFemale/F553,1,0,2kFemale/F553,2kFemale/F524,2kFemale/F138
1,3VD82FOHKRU4ID8XYQCQMRG5RTJOCZ,A1NQLW1UROVH81,37AQKJ12TXUZU2HNQQODGRRCUFVTTU,2,,20,3033,2kFemale/F124,2kFemale/F447,0,2,2kFemale/F124,2kFemale/F542,2kFemale/F447
1,3VD82FOHKRU4ID8XYQCQMRG5RTJOCZ,A1NQLW1UROVH81,37AQKJ12TXUZU2HNQQODGRRCUFVTTU,2,,21,2357,2kFemale/F352,2kFemale/F743,0,2,2kFemale/F352,2kFemale/F106,2kFemale/F743
1,3VD82FOHKRU4ID8XYQCQMRG5RTJOCZ,A1NQLW1UROVH81,37AQKJ12TXUZU2HNQQODGRRCUFVTTU,2,,22,2550,2kFemale/F676,2kFemale/F616,1,0,2kFemale/F616,2kFemale/F676,2kFemale/F718
1,3VD82FOHKRU4ID8XYQCQMRG5RTJOCZ,A1NQLW1UROVH81,37AQKJ12TXUZU2HNQQODGRRCUFVTTU,2,,23,3125,2kFemale/F861,2kFemale/F900,0,1,2kFemale/F861,2kFemale/F900,2kFemale/F467
1,3VD82FOHKRU4ID8XYQCQMRG5RTJOCZ,A1NQLW1UROVH81,37AQKJ12TXUZU2HNQQODGRRCUFVTTU,3,,24,1711,2kFemale/F868,2kFemale/F868,true,true,2kFemale/F868,2kFemale/F868,2kFemale/F174
1,3VD82FOHKRU4ID8XYQCQMRG5RTJOCZ,A1NQLW1UROVH81,37AQKJ12TXUZU2HNQQODGRRCUFVTTU,2,,25,2065,2kFemale/F542,2kFemale/F73,0,1,2kFemale/F542,2kFemale/F73,2kFemale/F52
1,3VD82FOHKRU4ID8XYQCQMRG5RTJOCZ,A1NQLW1UROVH81,37AQKJ12TXUZU2HNQQODGRRCUFVTTU,2,,26,1549,2kFemale/F828,2kFemale/F81,0,1,2kFemale/F828,2kFemale/F81,2kFemale/F381
1,3VD82FOHKRU4ID8XYQCQMRG5RTJOCZ,A1NQLW1UROVH81,37AQKJ12TXUZU2HNQQODGRRCUFVTTU,2,,27,3303,2kFemale/F334,2kFemale/F187,1,2,2kFemale/F886,2kFemale/F334,2kFemale/F187
1,3VD82FOHKRU4ID8XYQCQMRG5RTJOCZ,A1NQLW1UROVH81,37AQKJ12TXUZU2HNQQODGRRCUFVTTU,2,,28,1823,2kFemale/F179,2kFemale/F467,0,1,2kFemale/F179,2kFemale/F467,2kFemale/F424
1,3VD82FOHKRU4ID8XYQCQMRG5RTJOCZ,A1NQLW1UROVH81,37AQKJ12TXUZU2HNQQODGRRCUFVTTU,2,,29,3737,2kFemale/F155,2kFemale/F155,http://52.23.229.132/2kFemale/F114.jpg,0,1,2kFemale/F155,2kFemale/F114,2kFemale/F474
1,3VD82FOHKRU4ID8XYQCQMRG5RTJOCZ,A1NQLW1UROVH81,37AQKJ12TXUZU2HNQQODGRRCUFVTTU,2,,30,2926,2kFemale/F548,2kFemale/F912,1,0,2kFemale/F912,2kFemale/F548,2kFemale/F57
1,3VD82FOHKRU4ID8XYQCQMRG5RTJOCZ,A1NQLW1UROVH81,37AQKJ12TXUZU2HNQQODGRRCUFVTTU,2,,31,2431,2kFemale/F521,2kFemale/F915,1,0,2kFemale/F915,2kFemale/F521,2kFemale/F132
1,3VD82FOHKRU4ID8XYQCQMRG5RTJOCZ,A1NQLW1UROVH81,37AQKJ12TXUZU2HNQQODGRRCUFVTTU,2,,32,2562,2kFemale/F364,2kFemale/F364,http://52.23.229.132/2kFemale/F729.jpg,0,1,2kFemale/F364,2kFemale/F729,2kFemale/F757
1,3VD82FOHKRU4ID8XYQCQMRG5RTJOCZ,A1NQLW1UROVH81,37AQKJ12TXUZU2HNQQODGRRCUFVTTU,2,,33,1013,2kFemale/F336,2kFemale/F557,0,2,2kFemale/F336,2kFemale/F791,2kFemale/F557
1,3VD82FOHKRU4ID8XYQCQMRG5RTJOCZ,A1NQLW1UROVH81,37AQKJ12TXUZU2HNQQODGRRCUFVTTU,2,,34,613,2kFemale/F757,2kFemale/F297,0,1,2kFemale/F757,2kFemale/F297,2kFemale/F503
1,3VD82FOHKRU4ID8XYQCQMRG5RTJOCZ,A1NQLW1UROVH81,37AQKJ12TXUZU2HNQQODGRRCUFVTTU,2,,35,881,2kFemale/F15,2kFemale/F41,0,1,2kFemale/F15,2kFemale/F41,2kFemale/F161
1,3VD82FOHKRU4ID8XYQCQMRG5RTJOCZ,A1NQLW1UROVH81,37AQKJ12TXUZU2HNQQODGRRCUFVTTU,2,,36,786,2kFemale/F139,2kFemale/F130,0,1,2kFemale/F139,2kFemale/F130,2kFemale/F827
1,3VD82FOHKRU4ID8XYQCQMRG5RTJOCZ,A1NQLW1UROVH81,37AQKJ12TXUZU2HNQQODGRRCUFVTTU,2,,37,542,2kFemale/F5,2kFemale/F738,0,1,2kFemale/F5,2kFemale/F738,2kFemale/F778
1,3VD82FOHKRU4ID8XYQCQMRG5RTJOCZ,A1NQLW1UROVH81,37AQKJ12TXUZU2HNQQODGRRCUFVTTU,2,,38,1284,2kFemale/F467,2kFemale/F856,0,2,2kFemale/F467,2kFemale/F322,2kFemale/F856
1,3VD82FOHKRU4ID8XYQCQMRG5RTJOCZ,A1NQLW1UROVH81,37AQKJ12TXUZU2HNQQODGRRCUFVTTU,2,,39,857,2kFemale/F906,2kFemale/F33,0,1,2kFemale/F906,2kFemale/F33,2kFemale/F418
1,3VD82FOHKRU4ID8XYQCQMRG5RTJOCZ,A1NQLW1UROVH81,37AQKJ12TXUZU2HNQQODGRRCUFVTTU,2,,40,1194,2kFemale/F506,2kFemale/F889,0,2,2kFemale/F506,2kFemale/F742,2kFemale/F889
1,3VD82FOHKRU4ID8XYQCQMRG5RTJOCZ,A1NQLW1UROVH81,37AQKJ12TXUZU2HNQQODGRRCUFVTTU,2,,41,1185,2kFemale/F868,2kFemale/F251,0,2,2kFemale/F868,2kFemale/F174,2kFemale/F251
1,3VD82FOHKRU4ID8XYQCQMRG5RTJOCZ,A1NQLW1UROVH81,37AQKJ12TXUZU2HNQQODGRRCUFVTTU,2,,42,1572,2kFemale/F92,2kFemale/F126,0,1,2kFemale/F92,2kFemale/F126,2kFemale/F896
1,3VD82FOHKRU4ID8XYQCQMRG5RTJOCZ,A1NQLW1UROVH81,37AQKJ12TXUZU2HNQQODGRRCUFVTTU,2,,43,1205,2kFemale/F422,2kFemale/F915,0,2,2kFemale/F422,2kFemale/F102,2kFemale/F915
1,3VD82FOHKRU4ID8XYQCQMRG5RTJOCZ,A1NQLW1UROVH81,37AQKJ12TXUZU2HNQQODGRRCUFVTTU,2,,44,1017,2kFemale/F490,2kFemale/F383,0,1,2kFemale/F490,2kFemale/F383,2kFemale/F73
1,3VD82FOHKRU4ID8XYQCQMRG5RTJOCZ,A1NQLW1UROVH81,37AQKJ12TXUZU2HNQQODGRRCUFVTTU,2,,45,1032,2kFemale/F164,2kFemale/F673,0,1,2kFemale/F164,2kFemale/F673,2kFemale/F31
1,3VD82FOHKRU4ID8XYQCQMRG5RTJOCZ,A1NQLW1UROVH81,37AQKJ12TXUZU2HNQQODGRRCUFVTTU,2,,46,1198,2kFemale/F483,2kFemale/F848,0,2,2kFemale/F483,2kFemale/F666,2kFemale/F848
1,3VD82FOHKRU4ID8XYQCQMRG5RTJOCZ,A1NQLW1UROVH81,37AQKJ12TXUZU2HNQQODGRRCUFVTTU,2,,47,771,2kFemale/F240,2kFemale/F587,0,1,2kFemale/F240,2kFemale/F587,2kFemale/F451
1,3VD82FOHKRU4ID8XYQCQMRG5RTJOCZ,A1NQLW1UROVH81,37AQKJ12TXUZU2HNQQODGRRCUFVTTU,2,,48,1228,2kFemale/F871,2kFemale/F146,0,1,2kFemale/F871,2kFemale/F146,2kFemale/F786
1,3VD82FOHKRU4ID8XYQCQMRG5RTJOCZ,A1NQLW1UROVH81,37AQKJ12TXUZU2HNQQODGRRCUFVTTU,2,,49,1050,2kFemale/F372,2kFemale/F385,0,2,2kFemale/F372,2kFemale/F231,2kFemale/F385
1,3VD82FOHKRU4ID8XYQCQMRG5RTJOCZ,A1NQLW1UROVH81,37AQKJ12TXUZU2HNQQODGRRCUFVTTU,2,,50,750,2kFemale/F229,2kFemale/F398,0,1,2kFemale/F229,2kFemale/F398,2kFemale/F48
1,3VD82FOHKRU4ID8XYQCQMRG5RTJOCZ,A1NQLW1UROVH81,37AQKJ12TXUZU2HNQQODGRRCUFVTTU,2,,51,4281,2kFemale/F709,2kFemale/F374,0,1,2kFemale/F709,2kFemale/F374,2kFemale/F624
1,3VD82FOHKRU4ID8XYQCQMRG5RTJOCZ,A1NQLW1UROVH81,37AQKJ12TXUZU2HNQQODGRRCUFVTTU,2,,52,1143,2kFemale/F224,2kFemale/F337,0,1,2kFemale/F224,2kFemale/F337,2kFemale/F781
1,3VD82FOHKRU4ID8XYQCQMRG5RTJOCZ,A1NQLW1UROVH81,37AQKJ12TXUZU2HNQQODGRRCUFVTTU,2,,53,3098,2kFemale/F229,2kFemale/F175,0,2,2kFemale/F229,2kFemale/F118,2kFemale/F175
1,3VD82FOHKRU4ID8XYQCQMRG5RTJOCZ,A1NQLW1UROVH81,37AQKJ12TXUZU2HNQQODGRRCUFVTTU,2,,54,10487,2kFemale/F514,2kFemale/F75,0,2,2kFemale/F514,2kFemale/F949,2kFemale/F75
1,3VD82FOHKRU4ID8XYQCQMRG5RTJOCZ,A1NQLW1UROVH81,37AQKJ12TXUZU2HNQQODGRRCUFVTTU,2,,55,1719,2kFemale/F264,2kFemale/F93,0,2,2kFemale/F264,2kFemale/F44,2kFemale/F93
1,3VD82FOHKRU4ID8XYQCQMRG5RTJOCZ,A1NQLW1UROVH81,37AQKJ12TXUZU2HNQQODGRRCUFVTTU,2,,56,1249,2kFemale/F915,2kFemale/F325,0,1,2kFemale/F915,2kFemale/F325,2kFemale/F557
1,3VD82FOHKRU4ID8XYQCQMRG5RTJOCZ,A1NQLW1UROVH81,37AQKJ12TXUZU2HNQQODGRRCUFVTTU,2,,57,1713,2kFemale/F12,2kFemale/F321,0,1,2kFemale/F12,2kFemale/F321,2kFemale/F155
1,3VD82FOHKRU4ID8XYQCQMRG5RTJOCZ,A1NQLW1UROVH81,37AQKJ12TXUZU2HNQQODGRRCUFVTTU,2,,58,1484,2kFemale/F158,2kFemale/F574,0,1,2kFemale/F158,2kFemale/F574,2kFemale/F251
1,3VD82FOHKRU4ID8XYQCQMRG5RTJOCZ,A1NQLW1UROVH81,37AQKJ12TXUZU2HNQQODGRRCUFVTTU,2,,59,1303,2kFemale/F785,2kFemale/F302,0,2,2kFemale/F785,2kFemale/F662,2kFemale/F302
1,3VD82FOHKRU4ID8XYQCQMRG5RTJOCZ,A1NQLW1UROVH81,37AQKJ12TXUZU2HNQQODGRRCUFVTTU,2,,60,1392,2kFemale/F722,2kFemale/F718,0,1,2kFemale/F722,2kFemale/F718,2kFemale/F362
1,3VD82FOHKRU4ID8XYQCQMRG5RTJOCZ,A1NQLW1UROVH81,37AQKJ12TXUZU2HNQQODGRRCUFVTTU,2,,61,1780,2kFemale/F243,2kFemale/F232,0,2,2kFemale/F243,2kFemale/F776,2kFemale/F232
1,3VD82FOHKRU4ID8XYQCQMRG5RTJOCZ,A1NQLW1UROVH81,37AQKJ12TXUZU2HNQQODGRRCUFVTTU,2,,62,1893,2kFemale/F143,2kFemale/F800,0,2,2kFemale/F143,2kFemale/F246,2kFemale/F800
1,3VD82FOHKRU4ID8XYQCQMRG5RTJOCZ,A1NQLW1UROVH81,37AQKJ12TXUZU2HNQQODGRRCUFVTTU,2,,63,3096,2kFemale/F264,2kFemale/F623,0,2,2kFemale/F264,2kFemale/F648,2kFemale/F623
1,3VD82FOHKRU4ID8XYQCQMRG5RTJOCZ,A1NQLW1UROVH81,37AQKJ12TXUZU2HNQQODGRRCUFVTTU,2,,64,2749,2kFemale/F430,2kFemale/F80,0,1,2kFemale/F430,2kFemale/F80,2kFemale/F218
1,3VD82FOHKRU4ID8XYQCQMRG5RTJOCZ,A1NQLW1UROVH81,37AQKJ12TXUZU2HNQQODGRRCUFVTTU,2,,65,3037,2kFemale/F813,2kFemale/F334,0,2,2kFemale/F813,2kFemale/F593,2kFemale/F334
1,3VD82FOHKRU4ID8XYQCQMRG5RTJOCZ,A1NQLW1UROVH81,37AQKJ12TXUZU2HNQQODGRRCUFVTTU,2,,66,2524,2kFemale/F373,2kFemale/F791,1,2,2kFemale/F166,2kFemale/F373,2kFemale/F791
1,3VD82FOHKRU4ID8XYQCQMRG5RTJOCZ,A1NQLW1UROVH81,37AQKJ12TXUZU2HNQQODGRRCUFVTTU,2,,67,3936,2kFemale/F41,2kFemale/F69,0,1,2kFemale/F41,2kFemale/F69,2kFemale/F497
1,3VD82FOHKRU4ID8XYQCQMRG5RTJOCZ,A1NQLW1UROVH81,37AQKJ12TXUZU2HNQQODGRRCUFVTTU,2,,68,2467,2kFemale/F766,2kFemale/F58,0,1,2kFemale/F766,2kFemale/F58,2kFemale/F380
1,3VD82FOHKRU4ID8XYQCQMRG5RTJOCZ,A1NQLW1UROVH81,37AQKJ12TXUZU2HNQQODGRRCUFVTTU,2,,69,1680,2kFemale/F377,2kFemale/F940,0,2,2kFemale/F377,2kFemale/F350,2kFemale/F940
1,3VD82FOHKRU4ID8XYQCQMRG5RTJOCZ,A1NQLW1UROVH81,37AQKJ12TXUZU2HNQQODGRRCUFVTTU,2,,70,1462,2kFemale/F863,2kFemale/F588,0,2,2kFemale/F863,2kFemale/F581,2kFemale/F588
1,3VD82FOHKRU4ID8XYQCQMRG5RTJOCZ,A1NQLW1UROVH81,37AQKJ12TXUZU2HNQQODGRRCUFVTTU,2,,71,2924,2kFemale/F508,2kFemale/F334,0,1,2kFemale/F508,2kFemale/F334,2kFemale/F893
1,3VD82FOHKRU4ID8XYQCQMRG5RTJOCZ,A1NQLW1UROVH81,37AQKJ12TXUZU2HNQQODGRRCUFVTTU,2,,72,2401,2kFemale/F93,2kFemale/F778,0,2,2kFemale/F93,2kFemale/F779,2kFemale/F778
1,3VD82FOHKRU4ID8XYQCQMRG5RTJOCZ,A1NQLW1UROVH81,37AQKJ12TXUZU2HNQQODGRRCUFVTTU,2,,73,868,2kFemale/F710,2kFemale/F477,0,1,2kFemale/F710,2kFemale/F477,2kFemale/F457
1,3VD82FOHKRU4ID8XYQCQMRG5RTJOCZ,A1NQLW1UROVH81,37AQKJ12TXUZU2HNQQODGRRCUFVTTU,2,,74,1331,2kFemale/F484,2kFemale/F250,0,2,2kFemale/F484,2kFemale/F82,2kFemale/F250
1,3VD82FOHKRU4ID8XYQCQMRG5RTJOCZ,A1NQLW1UROVH81,37AQKJ12TXUZU2HNQQODGRRCUFVTTU,2,,75,1317,2kFemale/F449,2kFemale/F220,0,1,2kFemale/F449,2kFemale/F220,2kFemale/F803
1,3VD82FOHKRU4ID8XYQCQMRG5RTJOCZ,A1NQLW1UROVH81,37AQKJ12TXUZU2HNQQODGRRCUFVTTU,2,,76,3017,2kFemale/F862,2kFemale/F849,0,1,2kFemale/F862,2kFemale/F849,2kFemale/F318
1,3VD82FOHKRU4ID8XYQCQMRG5RTJOCZ,A1NQLW1UROVH81,37AQKJ12TXUZU2HNQQODGRRCUFVTTU,2,,77,2412,2kFemale/F449,2kFemale/F649,0,2,2kFemale/F449,2kFemale/F57,2kFemale/F649
1,3VD82FOHKRU4ID8XYQCQMRG5RTJOCZ,A1NQLW1UROVH81,37AQKJ12TXUZU2HNQQODGRRCUFVTTU,2,,78,2117,2kFemale/F835,2kFemale/F592,0,2,2kFemale/F835,2kFemale/F524,2kFemale/F592
1,3VD82FOHKRU4ID8XYQCQMRG5RTJOCZ,A1NQLW1UROVH81,37AQKJ12TXUZU2HNQQODGRRCUFVTTU,2,,79,1047,2kFemale/F36,2kFemale/F869,0,2,2kFemale/F36,2kFemale/F843,2kFemale/F869
1,3VD82FOHKRU4ID8XYQCQMRG5RTJOCZ,A1NQLW1UROVH81,37AQKJ12TXUZU2HNQQODGRRCUFVTTU,2,,80,1541,2kFemale/F697,2kFemale/F466,0,1,2kFemale/F697,2kFemale/F466,2kFemale/F551
1,3VD82FOHKRU4ID8XYQCQMRG5RTJOCZ,A1NQLW1UROVH81,37AQKJ12TXUZU2HNQQODGRRCUFVTTU,2,,81,1209,2kFemale/F710,2kFemale/F180,0,1,2kFemale/F710,2kFemale/F180,2kFemale/F654
1,3VD82FOHKRU4ID8XYQCQMRG5RTJOCZ,A1NQLW1UROVH81,37AQKJ12TXUZU2HNQQODGRRCUFVTTU,2,,82,671,2kFemale/F430,2kFemale/F521,0,1,2kFemale/F430,2kFemale/F521,2kFemale/F282
1,3VD82FOHKRU4ID8XYQCQMRG5RTJOCZ,A1NQLW1UROVH81,37AQKJ12TXUZU2HNQQODGRRCUFVTTU,2,,83,716,2kFemale/F320,2kFemale/F648,0,1,2kFemale/F320,2kFemale/F648,2kFemale/F130
1,3VD82FOHKRU4ID8XYQCQMRG5RTJOCZ,A1NQLW1UROVH81,37AQKJ12TXUZU2HNQQODGRRCUFVTTU,2,,84,768,2kFemale/F186,2kFemale/F216,0,1,2kFemale/F186,2kFemale/F216,2kFemale/F163
1,3VD82FOHKRU4ID8XYQCQMRG5RTJOCZ,A1NQLW1UROVH81,37AQKJ12TXUZU2HNQQODGRRCUFVTTU,2,,85,690,2kFemale/F678,2kFemale/F212,0,1,2kFemale/F678,2kFemale/F212,2kFemale/F112
1,3VD82FOHKRU4ID8XYQCQMRG5RTJOCZ,A1NQLW1UROVH81,37AQKJ12TXUZU2HNQQODGRRCUFVTTU,2,,86,1159,2kFemale/F471,2kFemale/F742,0,1,2kFemale/F471,2kFemale/F742,2kFemale/F681
1,3VD82FOHKRU4ID8XYQCQMRG5RTJOCZ,A1NQLW1UROVH81,37AQKJ12TXUZU2HNQQODGRRCUFVTTU,2,,87,571,2kFemale/F764,2kFemale/F28,0,1,2kFemale/F764,2kFemale/F28,2kFemale/F884
1,3VD82FOHKRU4ID8XYQCQMRG5RTJOCZ,A1NQLW1UROVH81,37AQKJ12TXUZU2HNQQODGRRCUFVTTU,2,,88,429,2kFemale/F740,2kFemale/F464,0,1,2kFemale/F740,2kFemale/F464,2kFemale/F415
1,3VD82FOHKRU4ID8XYQCQMRG5RTJOCZ,A1NQLW1UROVH81,37AQKJ12TXUZU2HNQQODGRRCUFVTTU,2,,89,528,2kFemale/F227,2kFemale/F437,0,1,2kFemale/F227,2kFemale/F437,2kFemale/F916
1,3VD82FOHKRU4ID8XYQCQMRG5RTJOCZ,A1NQLW1UROVH81,37AQKJ12TXUZU2HNQQODGRRCUFVTTU,2,,90,613,2kFemale/F495,2kFemale/F927,0,1,2kFemale/F495,2kFemale/F927,2kFemale/F618
1,3VD82FOHKRU4ID8XYQCQMRG5RTJOCZ,A1NQLW1UROVH81,37AQKJ12TXUZU2HNQQODGRRCUFVTTU,3,,91,1440,2kFemale/F560,2kFemale/F560,true,true,2kFemale/F560,2kFemale/F560,2kFemale/F198
1,3VD82FOHKRU4ID8XYQCQMRG5RTJOCZ,A1NQLW1UROVH81,37AQKJ12TXUZU2HNQQODGRRCUFVTTU,2,,92,983,2kFemale/F619,2kFemale/F697,0,1,2kFemale/F619,2kFemale/F697,2kFemale/F617
1,3VD82FOHKRU4ID8XYQCQMRG5RTJOCZ,A1NQLW1UROVH81,37AQKJ12TXUZU2HNQQODGRRCUFVTTU,2,,93,981,2kFemale/F615,2kFemale/F361,0,1,2kFemale/F615,2kFemale/F361,2kFemale/F772
1,3VD82FOHKRU4ID8XYQCQMRG5RTJOCZ,A1NQLW1UROVH81,37AQKJ12TXUZU2HNQQODGRRCUFVTTU,2,,94,783,2kFemale/F522,2kFemale/F497,0,1,2kFemale/F522,2kFemale/F497,2kFemale/F221
1,3VD82FOHKRU4ID8XYQCQMRG5RTJOCZ,A1NQLW1UROVH81,37AQKJ12TXUZU2HNQQODGRRCUFVTTU,2,,95,1349,2kFemale/F175,2kFemale/F229,0,1,2kFemale/F175,2kFemale/F229,2kFemale/F844
1,3VD82FOHKRU4ID8XYQCQMRG5RTJOCZ,A1NQLW1UROVH81,37AQKJ12TXUZU2HNQQODGRRCUFVTTU,2,,96,1354,2kFemale/F759,2kFemale/F94,0,1,2kFemale/F759,2kFemale/F94,2kFemale/F250
1,3VD82FOHKRU4ID8XYQCQMRG5RTJOCZ,A1NQLW1UROVH81,37AQKJ12TXUZU2HNQQODGRRCUFVTTU,2,,97,1203,2kFemale/F933,2kFemale/F679,0,1,2kFemale/F933,2kFemale/F679,2kFemale/F476
1,3VD82FOHKRU4ID8XYQCQMRG5RTJOCZ,A1NQLW1UROVH81,37AQKJ12TXUZU2HNQQODGRRCUFVTTU,2,,98,743,2kFemale/F283,2kFemale/F304,0,1,2kFemale/F283,2kFemale/F304,2kFemale/F404
1,3VD82FOHKRU4ID8XYQCQMRG5RTJOCZ,A1NQLW1UROVH81,37AQKJ12TXUZU2HNQQODGRRCUFVTTU,2,,99,851,2kFemale/F246,2kFemale/F106,1,0,2kFemale/F106,2kFemale/F246,2kFemale/F389
1,3VD82FOHKRU4ID8XYQCQMRG5RTJOCZ,A1NQLW1UROVH81,37AQKJ12TXUZU2HNQQODGRRCUFVTTU,2,,100,757,2kFemale/F410,2kFemale/F880,1,0,2kFemale/F880,2kFemale/F410,2kFemale/F176
1,3VD82FOHKRU4ID8XYQCQMRG5RTJOCZ,A1NQLW1UROVH81,37AQKJ12TXUZU2HNQQODGRRCUFVTTU,2,,101,712,2kFemale/F28,2kFemale/F467,0,1,2kFemale/F28,2kFemale/F467,2kFemale/F160
1,3VD82FOHKRU4ID8XYQCQMRG5RTJOCZ,A1NQLW1UROVH81,37AQKJ12TXUZU2HNQQODGRRCUFVTTU,2,,102,1598,2kFemale/F560,2kFemale/F287,0,2,2kFemale/F560,2kFemale/F198,2kFemale/F287
1,3VD82FOHKRU4ID8XYQCQMRG5RTJOCZ,A1NQLW1UROVH81,37AQKJ12TXUZU2HNQQODGRRCUFVTTU,2,,103,1079,2kFemale/F466,2kFemale/F646,0,2,2kFemale/F466,2kFemale/F595,2kFemale/F646
1,3VD82FOHKRU4ID8XYQCQMRG5RTJOCZ,A1NQLW1UROVH81,37AQKJ12TXUZU2HNQQODGRRCUFVTTU,2,,104,693,2kFemale/F175,2kFemale/F595,0,2,2kFemale/F175,2kFemale/F351,2kFemale/F595
1,3VD82FOHKRU4ID8XYQCQMRG5RTJOCZ,A1NQLW1UROVH81,37AQKJ12TXUZU2HNQQODGRRCUFVTTU,2,,105,800,2kFemale/F689,2kFemale/F628,0,2,2kFemale/F689,2kFemale/F143,2kFemale/F628
1,3VD82FOHKRU4ID8XYQCQMRG5RTJOCZ,A1NQLW1UROVH81,37AQKJ12TXUZU2HNQQODGRRCUFVTTU,2,,106,1209,2kFemale/F820,2kFemale/F767,0,1,2kFemale/F820,2kFemale/F767,2kFemale/F549
1,3VD82FOHKRU4ID8XYQCQMRG5RTJOCZ,A1NQLW1UROVH81,37AQKJ12TXUZU2HNQQODGRRCUFVTTU,2,,107,1631,2kFemale/F487,2kFemale/F756,0,2,2kFemale/F487,2kFemale/F779,2kFemale/F756
1,3VD82FOHKRU4ID8XYQCQMRG5RTJOCZ,A1NQLW1UROVH81,37AQKJ12TXUZU2HNQQODGRRCUFVTTU,2,,108,1562,2kFemale/F688,2kFemale/F622,0,2,2kFemale/F688,2kFemale/F102,2kFemale/F622
1,3VD82FOHKRU4ID8XYQCQMRG5RTJOCZ,A1NQLW1UROVH81,37AQKJ12TXUZU2HNQQODGRRCUFVTTU,2,,109,1282,2kFemale/F763,2kFemale/F433,0,1,2kFemale/F763,2kFemale/F433,2kFemale/F412
1,3VD82FOHKRU4ID8XYQCQMRG5RTJOCZ,A1NQLW1UROVH81,37AQKJ12TXUZU2HNQQODGRRCUFVTTU,2,,110,2153,2kFemale/F80,2kFemale/F787,1,0,2kFemale/F787,2kFemale/F80,2kFemale/F127
1,3VD82FOHKRU4ID8XYQCQMRG5RTJOCZ,A1NQLW1UROVH81,37AQKJ12TXUZU2HNQQODGRRCUFVTTU,2,,111,1899,2kFemale/F666,2kFemale/F189,0,1,2kFemale/F666,2kFemale/F189,2kFemale/F30
1,3VD82FOHKRU4ID8XYQCQMRG5RTJOCZ,A1NQLW1UROVH81,37AQKJ12TXUZU2HNQQODGRRCUFVTTU,2,,112,1356,2kFemale/F863,2kFemale/F933,0,1,2kFemale/F863,2kFemale/F933,2kFemale/F418
1,3VD82FOHKRU4ID8XYQCQMRG5RTJOCZ,A1NQLW1UROVH81,37AQKJ12TXUZU2HNQQODGRRCUFVTTU,2,,113,1118,2kFemale/F567,2kFemale/F250,0,1,2kFemale/F567,2kFemale/F250,2kFemale/F574
1,3VD82FOHKRU4ID8XYQCQMRG5RTJOCZ,A1NQLW1UROVH81,37AQKJ12TXUZU2HNQQODGRRCUFVTTU,2,,114,1590,2kFemale/F217,2kFemale/F296,0,2,2kFemale/F217,2kFemale/F415,2kFemale/F296
1,3VD82FOHKRU4ID8XYQCQMRG5RTJOCZ,A1NQLW1UROVH81,37AQKJ12TXUZU2HNQQODGRRCUFVTTU,2,,115,2051,2kFemale/F744,2kFemale/F884,0,2,2kFemale/F744,2kFemale/F78,2kFemale/F884
1,3VD82FOHKRU4ID8XYQCQMRG5RTJOCZ,A1NQLW1UROVH81,37AQKJ12TXUZU2HNQQODGRRCUFVTTU,2,,116,1450,2kFemale/F292,2kFemale/F484,1,2,2kFemale/F426,2kFemale/F292,2kFemale/F484
1,3VD82FOHKRU4ID8XYQCQMRG5RTJOCZ,A1NQLW1UROVH81,37AQKJ12TXUZU2HNQQODGRRCUFVTTU,2,,118,1318,2kFemale/F785,2kFemale/F662,0,1,2kFemale/F785,2kFemale/F662,2kFemale/F302
1,3VD82FOHKRU4ID8XYQCQMRG5RTJOCZ,A1NQLW1UROVH81,37AQKJ12TXUZU2HNQQODGRRCUFVTTU,2,,119,841,2kFemale/F229,2kFemale/F175,0,2,2kFemale/F229,2kFemale/F118,2kFemale/F175
1,3VD82FOHKRU4ID8XYQCQMRG5RTJOCZ,A1NQLW1UROVH81,37AQKJ12TXUZU2HNQQODGRRCUFVTTU,2,,120,640,2kFemale/F722,2kFemale/F718,0,1,2kFemale/F722,2kFemale/F718,2kFemale/F362
1,3VD82FOHKRU4ID8XYQCQMRG5RTJOCZ,A1NQLW1UROVH81,37AQKJ12TXUZU2HNQQODGRRCUFVTTU,2,,121,701,2kFemale/F906,2kFemale/F33,0,1,2kFemale/F906,2kFemale/F33,2kFemale/F418
1,3VD82FOHKRU4ID8XYQCQMRG5RTJOCZ,A1NQLW1UROVH81,37AQKJ12TXUZU2HNQQODGRRCUFVTTU,2,,122,1233,2kFemale/F874,2kFemale/F524,1,0,2kFemale/F524,2kFemale/F874,2kFemale/F272
1,3VD82FOHKRU4ID8XYQCQMRG5RTJOCZ,A1NQLW1UROVH81,37AQKJ12TXUZU2HNQQODGRRCUFVTTU,2,,123,632,2kFemale/F240,2kFemale/F587,0,1,2kFemale/F240,2kFemale/F587,2kFemale/F451
1,3VD82FOHKRU4ID8XYQCQMRG5RTJOCZ,A1NQLW1UROVH81,37AQKJ12TXUZU2HNQQODGRRCUFVTTU,2,,124,474,2kFemale/F164,2kFemale/F673,0,1,2kFemale/F164,2kFemale/F673,2kFemale/F31
1,3VD82FOHKRU4ID8XYQCQMRG5RTJOCZ,A1NQLW1UROVH81,37AQKJ12TXUZU2HNQQODGRRCUFVTTU,2,,125,615,2kFemale/F336,2kFemale/F791,0,1,2kFemale/F336,2kFemale/F791,2kFemale/F557
1,3VD82FOHKRU4ID8XYQCQMRG5RTJOCZ,A1NQLW1UROVH81,37AQKJ12TXUZU2HNQQODGRRCUFVTTU,2,,126,482,2kFemale/F542,2kFemale/F73,0,1,2kFemale/F542,2kFemale/F73,2kFemale/F52
1,3VD82FOHKRU4ID8XYQCQMRG5RTJOCZ,A1NQLW1UROVH81,37AQKJ12TXUZU2HNQQODGRRCUFVTTU,2,,127,616,2kFemale/F264,2kFemale/F44,0,1,2kFemale/F264,2kFemale/F44,2kFemale/F93
1,3VD82FOHKRU4ID8XYQCQMRG5RTJOCZ,A1NQLW1UROVH81,37AQKJ12TXUZU2HNQQODGRRCUFVTTU,2,,128,1117,2kFemale/F828,2kFemale/F81,0,1,2kFemale/F828,2kFemale/F81,2kFemale/F381
1,3VD82FOHKRU4ID8XYQCQMRG5RTJOCZ,A1NQLW1UROVH81,37AQKJ12TXUZU2HNQQODGRRCUFVTTU,2,,129,673,2kFemale/F871,2kFemale/F146,0,1,2kFemale/F871,2kFemale/F146,2kFemale/F786
1,3VD82FOHKRU4ID8XYQCQMRG5RTJOCZ,A1NQLW1UROVH81,37AQKJ12TXUZU2HNQQODGRRCUFVTTU,2,,130,667,2kFemale/F514,2kFemale/F949,0,1,2kFemale/F514,2kFemale/F949,2kFemale/F75
1,3VD82FOHKRU4ID8XYQCQMRG5RTJOCZ,A1NQLW1UROVH81,37AQKJ12TXUZU2HNQQODGRRCUFVTTU,2,,131,687,2kFemale/F92,2kFemale/F896,0,2,2kFemale/F92,2kFemale/F126,2kFemale/F896
1,3VD82FOHKRU4ID8XYQCQMRG5RTJOCZ,A1NQLW1UROVH81,37AQKJ12TXUZU2HNQQODGRRCUFVTTU,2,,132,901,2kFemale/F143,2kFemale/F800,0,2,2kFemale/F143,2kFemale/F246,2kFemale/F800
1,3VD82FOHKRU4ID8XYQCQMRG5RTJOCZ,A1NQLW1UROVH81,37AQKJ12TXUZU2HNQQODGRRCUFVTTU,2,,133,637,2kFemale/F422,2kFemale/F915,0,2,2kFemale/F422,2kFemale/F102,2kFemale/F915
1,3VD82FOHKRU4ID8XYQCQMRG5RTJOCZ,A1NQLW1UROVH81,37AQKJ12TXUZU2HNQQODGRRCUFVTTU,2,,134,592,2kFemale/F243,2kFemale/F232,0,2,2kFemale/F243,2kFemale/F776,2kFemale/F232
1,3VD82FOHKRU4ID8XYQCQMRG5RTJOCZ,A1NQLW1UROVH81,37AQKJ12TXUZU2HNQQODGRRCUFVTTU,2,,135,1724,2kFemale/F248,2kFemale/F411,0,2,2kFemale/F248,2kFemale/F762,2kFemale/F411
1,3VD82FOHKRU4ID8XYQCQMRG5RTJOCZ,A1NQLW1UROVH81,37AQKJ12TXUZU2HNQQODGRRCUFVTTU,2,,136,661,2kFemale/F827,2kFemale/F139,2,0,2kFemale/F139,2kFemale/F130,2kFemale/F827
1,3VD82FOHKRU4ID8XYQCQMRG5RTJOCZ,A1NQLW1UROVH81,37AQKJ12TXUZU2HNQQODGRRCUFVTTU,2,,137,548,2kFemale/F506,2kFemale/F889,0,2,2kFemale/F506,2kFemale/F742,2kFemale/F889
1,3VD82FOHKRU4ID8XYQCQMRG5RTJOCZ,A1NQLW1UROVH81,37AQKJ12TXUZU2HNQQODGRRCUFVTTU,2,,138,958,2kFemale/F161,2kFemale/F15,2,0,2kFemale/F15,2kFemale/F41,2kFemale/F161
1,3VD82FOHKRU4ID8XYQCQMRG5RTJOCZ,A1NQLW1UROVH81,37AQKJ12TXUZU2HNQQODGRRCUFVTTU,2,,139,606,2kFemale/F229,2kFemale/F398,0,1,2kFemale/F229,2kFemale/F398,2kFemale/F48
1,3VD82FOHKRU4ID8XYQCQMRG5RTJOCZ,A1NQLW1UROVH81,37AQKJ12TXUZU2HNQQODGRRCUFVTTU,2,,140,601,2kFemale/F264,2kFemale/F648,0,1,2kFemale/F264,2kFemale/F648,2kFemale/F623
1,3VD82FOHKRU4ID8XYQCQMRG5RTJOCZ,A1NQLW1UROVH81,37AQKJ12TXUZU2HNQQODGRRCUFVTTU,2,,141,704,2kFemale/F574,2kFemale/F158,1,0,2kFemale/F158,2kFemale/F574,2kFemale/F251
1,3VD82FOHKRU4ID8XYQCQMRG5RTJOCZ,A1NQLW1UROVH81,37AQKJ12TXUZU2HNQQODGRRCUFVTTU,2,,142,655,2kFemale/F483,2kFemale/F666,0,1,2kFemale/F483,2kFemale/F666,2kFemale/F848
1,3VD82FOHKRU4ID8XYQCQMRG5RTJOCZ,A1NQLW1UROVH81,37AQKJ12TXUZU2HNQQODGRRCUFVTTU,2,,143,587,2kFemale/F467,2kFemale/F179,1,0,2kFemale/F179,2kFemale/F467,2kFemale/F424
1,3VD82FOHKRU4ID8XYQCQMRG5RTJOCZ,A1NQLW1UROVH81,37AQKJ12TXUZU2HNQQODGRRCUFVTTU,2,,144,489,2kFemale/F912,2kFemale/F548,0,1,2kFemale/F912,2kFemale/F548,2kFemale/F57
1,3VD82FOHKRU4ID8XYQCQMRG5RTJOCZ,A1NQLW1UROVH81,37AQKJ12TXUZU2HNQQODGRRCUFVTTU,2,,145,539,2kFemale/F900,2kFemale/F861,1,0,2kFemale/F861,2kFemale/F900,2kFemale/F467
1,3VD82FOHKRU4ID8XYQCQMRG5RTJOCZ,A1NQLW1UROVH81,37AQKJ12TXUZU2HNQQODGRRCUFVTTU,2,,146,543,2kFemale/F868,2kFemale/F174,0,1,2kFemale/F868,2kFemale/F174,2kFemale/F251
1,3VD82FOHKRU4ID8XYQCQMRG5RTJOCZ,A1NQLW1UROVH81,37AQKJ12TXUZU2HNQQODGRRCUFVTTU,2,,147,735,2kFemale/F321,2kFemale/F12,1,0,2kFemale/F12,2kFemale/F321,2kFemale/F155
1,3VD82FOHKRU4ID8XYQCQMRG5RTJOCZ,A1NQLW1UROVH81,37AQKJ12TXUZU2HNQQODGRRCUFVTTU,2,,148,712,2kFemale/F352,2kFemale/F106,0,1,2kFemale/F352,2kFemale/F106,2kFemale/F743
1,3VD82FOHKRU4ID8XYQCQMRG5RTJOCZ,A1NQLW1UROVH81,37AQKJ12TXUZU2HNQQODGRRCUFVTTU,2,,149,609,2kFemale/F322,2kFemale/F467,1,0,2kFemale/F467,2kFemale/F322,2kFemale/F856
1,3VD82FOHKRU4ID8XYQCQMRG5RTJOCZ,A1NQLW1UROVH81,37AQKJ12TXUZU2HNQQODGRRCUFVTTU,2,,150,622,2kFemale/F616,2kFemale/F676,0,1,2kFemale/F616,2kFemale/F676,2kFemale/F718
1,3VD82FOHKRU4ID8XYQCQMRG5RTJOCZ,A1NQLW1UROVH81,37AQKJ12TXUZU2HNQQODGRRCUFVTTU,2,,151,579,2kFemale/F231,2kFemale/F372,1,0,2kFemale/F372,2kFemale/F231,2kFemale/F385
1,3VD82FOHKRU4ID8XYQCQMRG5RTJOCZ,A1NQLW1UROVH81,37AQKJ12TXUZU2HNQQODGRRCUFVTTU,2,,152,693,2kFemale/F813,2kFemale/F593,0,1,2kFemale/F813,2kFemale/F593,2kFemale/F334
1,3VD82FOHKRU4ID8XYQCQMRG5RTJOCZ,A1NQLW1UROVH81,37AQKJ12TXUZU2HNQQODGRRCUFVTTU,2,,153,653,2kFemale/F155,2kFemale/F114,0,1,2kFemale/F155,2kFemale/F114,2kFemale/F474
1,3VD82FOHKRU4ID8XYQCQMRG5RTJOCZ,A1NQLW1UROVH81,37AQKJ12TXUZU2HNQQODGRRCUFVTTU,2,,154,946,2kFemale/F383,2kFemale/F490,1,0,2kFemale/F490,2kFemale/F383,2kFemale/F73
1,3VD82FOHKRU4ID8XYQCQMRG5RTJOCZ,A1NQLW1UROVH81,37AQKJ12TXUZU2HNQQODGRRCUFVTTU,3,,155,2023,2kFemale/F868,2kFemale/F868,true,true,2kFemale/F868,2kFemale/F868,2kFemale/F174
1,3VD82FOHKRU4ID8XYQCQMRG5RTJOCZ,A1NQLW1UROVH81,37AQKJ12TXUZU2HNQQODGRRCUFVTTU,2,,156,1862,2kFemale/F542,2kFemale/F124,1,0,2kFemale/F124,2kFemale/F542,2kFemale/F447
1,3VD82FOHKRU4ID8XYQCQMRG5RTJOCZ,A1NQLW1UROVH81,37AQKJ12TXUZU2HNQQODGRRCUFVTTU,2,,157,1264,2kFemale/F886,2kFemale/F334,0,1,2kFemale/F886,2kFemale/F334,2kFemale/F187
1,3VD82FOHKRU4ID8XYQCQMRG5RTJOCZ,A1NQLW1UROVH81,37AQKJ12TXUZU2HNQQODGRRCUFVTTU,2,,158,2211,2kFemale/F553,2kFemale/F524,0,1,2kFemale/F553,2kFemale/F524,2kFemale/F138
1,3VD82FOHKRU4ID8XYQCQMRG5RTJOCZ,A1NQLW1UROVH81,37AQKJ12TXUZU2HNQQODGRRCUFVTTU,2,,159,7024,2kFemale/F915,2kFemale/F325,0,1,2kFemale/F915,2kFemale/F325,2kFemale/F557
1,3VD82FOHKRU4ID8XYQCQMRG5RTJOCZ,A1NQLW1UROVH81,37AQKJ12TXUZU2HNQQODGRRCUFVTTU,2,,160,981,2kFemale/F915,2kFemale/F521,0,1,2kFemale/F915,2kFemale/F521,2kFemale/F132
1,3VD82FOHKRU4ID8XYQCQMRG5RTJOCZ,A1NQLW1UROVH81,37AQKJ12TXUZU2HNQQODGRRCUFVTTU,2,,161,563,2kFemale/F757,2kFemale/F297,0,1,2kFemale/F757,2kFemale/F297,2kFemale/F503
1,3VD82FOHKRU4ID8XYQCQMRG5RTJOCZ,A1NQLW1UROVH81,37AQKJ12TXUZU2HNQQODGRRCUFVTTU,2,,162,1318,2kFemale/F224,2kFemale/F337,0,1,2kFemale/F224,2kFemale/F337,2kFemale/F781
1,3VD82FOHKRU4ID8XYQCQMRG5RTJOCZ,A1NQLW1UROVH81,37AQKJ12TXUZU2HNQQODGRRCUFVTTU,2,,163,624,2kFemale/F624,2kFemale/F657,0,1,2kFemale/F624,2kFemale/F657,2kFemale/F712
1,3VD82FOHKRU4ID8XYQCQMRG5RTJOCZ,A1NQLW1UROVH81,37AQKJ12TXUZU2HNQQODGRRCUFVTTU,2,,164,472,2kFemale/F5,2kFemale/F738,0,1,2kFemale/F5,2kFemale/F738,2kFemale/F778
1,3VD82FOHKRU4ID8XYQCQMRG5RTJOCZ,A1NQLW1UROVH81,37AQKJ12TXUZU2HNQQODGRRCUFVTTU,2,,165,8647,2kFemale/F214,2kFemale/F716,0,1,2kFemale/F214,2kFemale/F716,2kFemale/F243
1,3VD82FOHKRU4ID8XYQCQMRG5RTJOCZ,A1NQLW1UROVH81,37AQKJ12TXUZU2HNQQODGRRCUFVTTU,2,,166,612,2kFemale/F430,2kFemale/F80,0,1,2kFemale/F430,2kFemale/F80,2kFemale/F218
1,3VD82FOHKRU4ID8XYQCQMRG5RTJOCZ,A1NQLW1UROVH81,37AQKJ12TXUZU2HNQQODGRRCUFVTTU,2,,167,619,2kFemale/F709,2kFemale/F374,0,1,2kFemale/F709,2kFemale/F374,2kFemale/F624
1,3VD82FOHKRU4ID8XYQCQMRG5RTJOCZ,A1NQLW1UROVH81,37AQKJ12TXUZU2HNQQODGRRCUFVTTU,2,,168,682,2kFemale/F364,2kFemale/F729,0,1,2kFemale/F364,2kFemale/F729,2kFemale/F757
1,3VD82FOHKRU4ID8XYQCQMRG5RTJOCZ,A1NQLW1UROVH81,37AQKJ12TXUZU2HNQQODGRRCUFVTTU,2,,169,883,2kFemale/F283,2kFemale/F304,0,1,2kFemale/F283,2kFemale/F304,2kFemale/F404
1,3VD82FOHKRU4ID8XYQCQMRG5RTJOCZ,A1NQLW1UROVH81,37AQKJ12TXUZU2HNQQODGRRCUFVTTU,2,,170,546,2kFemale/F933,2kFemale/F679,0,1,2kFemale/F933,2kFemale/F679,2kFemale/F476
1,3VD82FOHKRU4ID8XYQCQMRG5RTJOCZ,A1NQLW1UROVH81,37AQKJ12TXUZU2HNQQODGRRCUFVTTU,2,,171,637,2kFemale/F487,2kFemale/F779,0,1,2kFemale/F487,2kFemale/F779,2kFemale/F756
1,3VD82FOHKRU4ID8XYQCQMRG5RTJOCZ,A1NQLW1UROVH81,37AQKJ12TXUZU2HNQQODGRRCUFVTTU,2,,172,545,2kFemale/F320,2kFemale/F648,0,1,2kFemale/F320,2kFemale/F648,2kFemale/F130
1,3VD82FOHKRU4ID8XYQCQMRG5RTJOCZ,A1NQLW1UROVH81,37AQKJ12TXUZU2HNQQODGRRCUFVTTU,2,,173,8141,2kFemale/F766,2kFemale/F58,0,1,2kFemale/F766,2kFemale/F58,2kFemale/F380
1,3VD82FOHKRU4ID8XYQCQMRG5RTJOCZ,A1NQLW1UROVH81,37AQKJ12TXUZU2HNQQODGRRCUFVTTU,2,,174,524,2kFemale/F41,2kFemale/F69,0,1,2kFemale/F41,2kFemale/F69,2kFemale/F497
1,3VD82FOHKRU4ID8XYQCQMRG5RTJOCZ,A1NQLW1UROVH81,37AQKJ12TXUZU2HNQQODGRRCUFVTTU,2,,175,588,2kFemale/F186,2kFemale/F216,0,1,2kFemale/F186,2kFemale/F216,2kFemale/F163
1,3VD82FOHKRU4ID8XYQCQMRG5RTJOCZ,A1NQLW1UROVH81,37AQKJ12TXUZU2HNQQODGRRCUFVTTU,2,,176,556,2kFemale/F93,2kFemale/F779,0,1,2kFemale/F93,2kFemale/F779,2kFemale/F778
1,3VD82FOHKRU4ID8XYQCQMRG5RTJOCZ,A1NQLW1UROVH81,37AQKJ12TXUZU2HNQQODGRRCUFVTTU,2,,177,630,2kFemale/F377,2kFemale/F350,0,1,2kFemale/F377,2kFemale/F350,2kFemale/F940
1,3VD82FOHKRU4ID8XYQCQMRG5RTJOCZ,A1NQLW1UROVH81,37AQKJ12TXUZU2HNQQODGRRCUFVTTU,2,,178,750,2kFemale/F933,2kFemale/F863,1,0,2kFemale/F863,2kFemale/F933,2kFemale/F418
1,3VD82FOHKRU4ID8XYQCQMRG5RTJOCZ,A1NQLW1UROVH81,37AQKJ12TXUZU2HNQQODGRRCUFVTTU,2,,179,654,2kFemale/F449,2kFemale/F220,0,1,2kFemale/F449,2kFemale/F220,2kFemale/F803
1,3VD82FOHKRU4ID8XYQCQMRG5RTJOCZ,A1NQLW1UROVH81,37AQKJ12TXUZU2HNQQODGRRCUFVTTU,2,,180,744,2kFemale/F497,2kFemale/F522,1,0,2kFemale/F522,2kFemale/F497,2kFemale/F221
1,3VD82FOHKRU4ID8XYQCQMRG5RTJOCZ,A1NQLW1UROVH81,37AQKJ12TXUZU2HNQQODGRRCUFVTTU,2,,181,680,2kFemale/F28,2kFemale/F764,1,0,2kFemale/F764,2kFemale/F28,2kFemale/F884
1,3VD82FOHKRU4ID8XYQCQMRG5RTJOCZ,A1NQLW1UROVH81,37AQKJ12TXUZU2HNQQODGRRCUFVTTU,2,,182,461,2kFemale/F767,2kFemale/F820,1,0,2kFemale/F820,2kFemale/F767,2kFemale/F549
1,3VD82FOHKRU4ID8XYQCQMRG5RTJOCZ,A1NQLW1UROVH81,37AQKJ12TXUZU2HNQQODGRRCUFVTTU,2,,183,712,2kFemale/F927,2kFemale/F495,1,0,2kFemale/F495,2kFemale/F927,2kFemale/F618
1,3VD82FOHKRU4ID8XYQCQMRG5RTJOCZ,A1NQLW1UROVH81,37AQKJ12TXUZU2HNQQODGRRCUFVTTU,2,,184,747,2kFemale/F467,2kFemale/F28,1,0,2kFemale/F28,2kFemale/F467,2kFemale/F160
1,3VD82FOHKRU4ID8XYQCQMRG5RTJOCZ,A1NQLW1UROVH81,37AQKJ12TXUZU2HNQQODGRRCUFVTTU,2,,185,758,2kFemale/F835,2kFemale/F524,0,1,2kFemale/F835,2kFemale/F524,2kFemale/F592
1,3VD82FOHKRU4ID8XYQCQMRG5RTJOCZ,A1NQLW1UROVH81,37AQKJ12TXUZU2HNQQODGRRCUFVTTU,2,,186,643,2kFemale/F78,2kFemale/F744,1,0,2kFemale/F744,2kFemale/F78,2kFemale/F884
1,3VD82FOHKRU4ID8XYQCQMRG5RTJOCZ,A1NQLW1UROVH81,37AQKJ12TXUZU2HNQQODGRRCUFVTTU,2,,187,608,2kFemale/F763,2kFemale/F433,0,1,2kFemale/F763,2kFemale/F433,2kFemale/F412
1,3VD82FOHKRU4ID8XYQCQMRG5RTJOCZ,A1NQLW1UROVH81,37AQKJ12TXUZU2HNQQODGRRCUFVTTU,2,,188,578,2kFemale/F619,2kFemale/F697,0,1,2kFemale/F619,2kFemale/F697,2kFemale/F617
1,3VD82FOHKRU4ID8XYQCQMRG5RTJOCZ,A1NQLW1UROVH81,37AQKJ12TXUZU2HNQQODGRRCUFVTTU,2,,189,697,2kFemale/F880,2kFemale/F410,0,1,2kFemale/F880,2kFemale/F410,2kFemale/F176
1,3VD82FOHKRU4ID8XYQCQMRG5RTJOCZ,A1NQLW1UROVH81,37AQKJ12TXUZU2HNQQODGRRCUFVTTU,2,,190,696,2kFemale/F697,2kFemale/F466,0,1,2kFemale/F697,2kFemale/F466,2kFemale/F551
1,3VD82FOHKRU4ID8XYQCQMRG5RTJOCZ,A1NQLW1UROVH81,37AQKJ12TXUZU2HNQQODGRRCUFVTTU,2,,191,561,2kFemale/F740,2kFemale/F464,0,1,2kFemale/F740,2kFemale/F464,2kFemale/F415
1,3VD82FOHKRU4ID8XYQCQMRG5RTJOCZ,A1NQLW1UROVH81,37AQKJ12TXUZU2HNQQODGRRCUFVTTU,2,,192,623,2kFemale/F166,2kFemale/F373,0,1,2kFemale/F166,2kFemale/F373,2kFemale/F791
1,3VD82FOHKRU4ID8XYQCQMRG5RTJOCZ,A1NQLW1UROVH81,37AQKJ12TXUZU2HNQQODGRRCUFVTTU,2,,193,516,2kFemale/F471,2kFemale/F742,0,1,2kFemale/F471,2kFemale/F742,2kFemale/F681
1,3VD82FOHKRU4ID8XYQCQMRG5RTJOCZ,A1NQLW1UROVH81,37AQKJ12TXUZU2HNQQODGRRCUFVTTU,2,,194,1877,2kFemale/F80,2kFemale/F787,1,0,2kFemale/F787,2kFemale/F80,2kFemale/F127
1,3VD82FOHKRU4ID8XYQCQMRG5RTJOCZ,A1NQLW1UROVH81,37AQKJ12TXUZU2HNQQODGRRCUFVTTU,2,,195,2140,2kFemale/F180,2kFemale/F710,1,0,2kFemale/F710,2kFemale/F180,2kFemale/F654
1,3VD82FOHKRU4ID8XYQCQMRG5RTJOCZ,A1NQLW1UROVH81,37AQKJ12TXUZU2HNQQODGRRCUFVTTU,2,,196,1639,2kFemale/F615,2kFemale/F361,0,1,2kFemale/F615,2kFemale/F361,2kFemale/F772
1,3VD82FOHKRU4ID8XYQCQMRG5RTJOCZ,A1NQLW1UROVH81,37AQKJ12TXUZU2HNQQODGRRCUFVTTU,2,,197,675,2kFemale/F567,2kFemale/F250,0,1,2kFemale/F567,2kFemale/F250,2kFemale/F574
1,3VD82FOHKRU4ID8XYQCQMRG5RTJOCZ,A1NQLW1UROVH81,37AQKJ12TXUZU2HNQQODGRRCUFVTTU,2,,198,629,2kFemale/F36,2kFemale/F843,0,1,2kFemale/F36,2kFemale/F843,2kFemale/F869
1,3VD82FOHKRU4ID8XYQCQMRG5RTJOCZ,A1NQLW1UROVH81,37AQKJ12TXUZU2HNQQODGRRCUFVTTU,2,,199,554,2kFemale/F710,2kFemale/F477,0,1,2kFemale/F710,2kFemale/F477,2kFemale/F457
1,3VD82FOHKRU4ID8XYQCQMRG5RTJOCZ,A1NQLW1UROVH81,37AQKJ12TXUZU2HNQQODGRRCUFVTTU,2,,200,501,2kFemale/F430,2kFemale/F521,0,1,2kFemale/F430,2kFemale/F521,2kFemale/F282
1,3VD82FOHKRU4ID8XYQCQMRG5RTJOCZ,A1NQLW1UROVH81,37AQKJ12TXUZU2HNQQODGRRCUFVTTU,2,,201,587,2kFemale/F688,2kFemale/F102,0,1,2kFemale/F688,2kFemale/F102,2kFemale/F622
1,3VD82FOHKRU4ID8XYQCQMRG5RTJOCZ,A1NQLW1UROVH81,37AQKJ12TXUZU2HNQQODGRRCUFVTTU,2,,202,555,2kFemale/F227,2kFemale/F437,0,1,2kFemale/F227,2kFemale/F437,2kFemale/F916
1,3VD82FOHKRU4ID8XYQCQMRG5RTJOCZ,A1NQLW1UROVH81,37AQKJ12TXUZU2HNQQODGRRCUFVTTU,2,,203,722,2kFemale/F175,2kFemale/F229,0,1,2kFemale/F175,2kFemale/F229,2kFemale/F844
1,3VD82FOHKRU4ID8XYQCQMRG5RTJOCZ,A1NQLW1UROVH81,37AQKJ12TXUZU2HNQQODGRRCUFVTTU,2,,204,635,2kFemale/F666,2kFemale/F189,0,1,2kFemale/F666,2kFemale/F189,2kFemale/F30
1,3VD82FOHKRU4ID8XYQCQMRG5RTJOCZ,A1NQLW1UROVH81,37AQKJ12TXUZU2HNQQODGRRCUFVTTU,2,,205,1606,2kFemale/F484,2kFemale/F250,0,2,2kFemale/F484,2kFemale/F82,2kFemale/F250
1,3VD82FOHKRU4ID8XYQCQMRG5RTJOCZ,A1NQLW1UROVH81,37AQKJ12TXUZU2HNQQODGRRCUFVTTU,2,,206,679,2kFemale/F106,2kFemale/F389,0,2,2kFemale/F106,2kFemale/F246,2kFemale/F389
1,3VD82FOHKRU4ID8XYQCQMRG5RTJOCZ,A1NQLW1UROVH81,37AQKJ12TXUZU2HNQQODGRRCUFVTTU,2,,207,946,2kFemale/F862,2kFemale/F849,0,1,2kFemale/F862,2kFemale/F849,2kFemale/F318
1,3VD82FOHKRU4ID8XYQCQMRG5RTJOCZ,A1NQLW1UROVH81,37AQKJ12TXUZU2HNQQODGRRCUFVTTU,2,,208,930,2kFemale/F334,2kFemale/F508,1,0,2kFemale/F508,2kFemale/F334,2kFemale/F893
1,3VD82FOHKRU4ID8XYQCQMRG5RTJOCZ,A1NQLW1UROVH81,37AQKJ12TXUZU2HNQQODGRRCUFVTTU,2,,209,845,2kFemale/F449,2kFemale/F57,0,1,2kFemale/F449,2kFemale/F57,2kFemale/F649
1,3VD82FOHKRU4ID8XYQCQMRG5RTJOCZ,A1NQLW1UROVH81,37AQKJ12TXUZU2HNQQODGRRCUFVTTU,2,,210,792,2kFemale/F292,2kFemale/F426,1,0,2kFemale/F426,2kFemale/F292,2kFemale/F484
1,3VD82FOHKRU4ID8XYQCQMRG5RTJOCZ,A1NQLW1UROVH81,37AQKJ12TXUZU2HNQQODGRRCUFVTTU,2,,211,623,2kFemale/F678,2kFemale/F212,0,1,2kFemale/F678,2kFemale/F212,2kFemale/F112
1,3VD82FOHKRU4ID8XYQCQMRG5RTJOCZ,A1NQLW1UROVH81,37AQKJ12TXUZU2HNQQODGRRCUFVTTU,3,,212,776,2kFemale/F560,2kFemale/F560,true,true,2kFemale/F560,2kFemale/F560,2kFemale/F198
1,3VD82FOHKRU4ID8XYQCQMRG5RTJOCZ,A1NQLW1UROVH81,37AQKJ12TXUZU2HNQQODGRRCUFVTTU,2,,213,1012,2kFemale/F863,2kFemale/F588,0,2,2kFemale/F863,2kFemale/F581,2kFemale/F588
1,3VD82FOHKRU4ID8XYQCQMRG5RTJOCZ,A1NQLW1UROVH81,37AQKJ12TXUZU2HNQQODGRRCUFVTTU,2,,214,1107,2kFemale/F689,2kFemale/F628,0,2,2kFemale/F689,2kFemale/F143,2kFemale/F628
1,3VD82FOHKRU4ID8XYQCQMRG5RTJOCZ,A1NQLW1UROVH81,37AQKJ12TXUZU2HNQQODGRRCUFVTTU,2,,215,602,2kFemale/F759,2kFemale/F94,0,1,2kFemale/F759,2kFemale/F94,2kFemale/F250
1,3VD82FOHKRU4ID8XYQCQMRG5RTJOCZ,A1NQLW1UROVH81,37AQKJ12TXUZU2HNQQODGRRCUFVTTU,2,,216,626,2kFemale/F217,2kFemale/F415,0,1,2kFemale/F217,2kFemale/F415,2kFemale/F296
1,3VD82FOHKRU4ID8XYQCQMRG5RTJOCZ,A1NQLW1UROVH81,37AQKJ12TXUZU2HNQQODGRRCUFVTTU,2,,217,649,2kFemale/F175,2kFemale/F351,0,1,2kFemale/F175,2kFemale/F351,2kFemale/F595
1,3VD82FOHKRU4ID8XYQCQMRG5RTJOCZ,A1NQLW1UROVH81,37AQKJ12TXUZU2HNQQODGRRCUFVTTU,2,,218,628,2kFemale/F466,2kFemale/F595,0,1,2kFemale/F466,2kFemale/F595,2kFemale/F646
1,3VD82FOHKRU4ID8XYQCQMRG5RTJOCZ,A1NQLW1UROVH81,37AQKJ12TXUZU2HNQQODGRRCUFVTTU,2,,219,570,2kFemale/F560,2kFemale/F198,0,1,2kFemale/F560,2kFemale/F198,2kFemale/F287
2,3F6KKYWMNC7W5KEZX77OR8YIMJQDN9,A1HFM4HUTEN5U0,37AQKJ12TXUZU2HNQQODGRRCUFVTTU,1,,5,7847,2kFemale/F19,2kFemale/F18,1,0,2kFemale/F18,2kFemale/F19,2kFemale/F16
2,3F6KKYWMNC7W5KEZX77OR8YIMJQDN9,A1HFM4HUTEN5U0,37AQKJ12TXUZU2HNQQODGRRCUFVTTU,1,,11,4046,2kFemale/F10,2kFemale/F17,1,2,2kFemale/F18,2kFemale/F10,2kFemale/F17
2,3F6KKYWMNC7W5KEZX77OR8YIMJQDN9,A1HFM4HUTEN5U0,37AQKJ12TXUZU2HNQQODGRRCUFVTTU,1,,12,5232,2kFemale/F20,2kFemale/F12,2,1,2kFemale/F16,2kFemale/F12,2kFemale/F20
2,3F6KKYWMNC7W5KEZX77OR8YIMJQDN9,A1HFM4HUTEN5U0,37AQKJ12TXUZU2HNQQODGRRCUFVTTU,2,,14,7805,2kFemale/F334,2kFemale/F187,1,2,2kFemale/F886,2kFemale/F334,2kFemale/F187
2,3F6KKYWMNC7W5KEZX77OR8YIMJQDN9,A1HFM4HUTEN5U0,37AQKJ12TXUZU2HNQQODGRRCUFVTTU,2,,15,5470,2kFemale/F383,2kFemale/F73,1,2,2kFemale/F490,2kFemale/F383,2kFemale/F73
2,3F6KKYWMNC7W5KEZX77OR8YIMJQDN9,A1HFM4HUTEN5U0,37AQKJ12TXUZU2HNQQODGRRCUFVTTU,2,,16,4714,2kFemale/F130,2kFemale/F139,1,0,2kFemale/F139,2kFemale/F130,2kFemale/F827
2,3F6KKYWMNC7W5KEZX77OR8YIMJQDN9,A1HFM4HUTEN5U0,37AQKJ12TXUZU2HNQQODGRRCUFVTTU,2,,17,4801,2kFemale/F506,2kFemale/F889,0,2,2kFemale/F506,2kFemale/F742,2kFemale/F889
2,3F6KKYWMNC7W5KEZX77OR8YIMJQDN9,A1HFM4HUTEN5U0,37AQKJ12TXUZU2HNQQODGRRCUFVTTU,2,,18,2418,2kFemale/F146,2kFemale/F786,1,2,2kFemale/F871,2kFemale/F146,2kFemale/F786
2,3F6KKYWMNC7W5KEZX77OR8YIMJQDN9,A1HFM4HUTEN5U0,37AQKJ12TXUZU2HNQQODGRRCUFVTTU,2,,19,2916,2kFemale/F31,2kFemale/F673,2,1,2kFemale/F164,2kFemale/F673,2kFemale/F31
2,3F6KKYWMNC7W5KEZX77OR8YIMJQDN9,A1HFM4HUTEN5U0,37AQKJ12TXUZU2HNQQODGRRCUFVTTU,2,,20,7665,2kFemale/F624,2kFemale/F709,2,0,2kFemale/F709,2kFemale/F374,2kFemale/F624
2,3F6KKYWMNC7W5KEZX77OR8YIMJQDN9,A1HFM4HUTEN5U0,37AQKJ12TXUZU2HNQQODGRRCUFVTTU,2,,21,2214,2kFemale/F856,2kFemale/F322,2,1,2kFemale/F467,2kFemale/F322,2kFemale/F856
2,3F6KKYWMNC7W5KEZX77OR8YIMJQDN9,A1HFM4HUTEN5U0,37AQKJ12TXUZU2HNQQODGRRCUFVTTU,2,,22,3699,2kFemale/F716,2kFemale/F243,1,2,2kFemale/F214,2kFemale/F716,2kFemale/F243
2,3F6KKYWMNC7W5KEZX77OR8YIMJQDN9,A1HFM4HUTEN5U0,37AQKJ12TXUZU2HNQQODGRRCUFVTTU,2,,23,2470,2kFemale/F33,2kFemale/F418,1,2,2kFemale/F906,2kFemale/F33,2kFemale/F418
2,3F6KKYWMNC7W5KEZX77OR8YIMJQDN9,A1HFM4HUTEN5U0,37AQKJ12TXUZU2HNQQODGRRCUFVTTU,2,,24,4181,2kFemale/F542,2kFemale/F124,1,0,2kFemale/F124,2kFemale/F542,2kFemale/F447
2,3F6KKYWMNC7W5KEZX77OR8YIMJQDN9,A1HFM4HUTEN5U0,37AQKJ12TXUZU2HNQQODGRRCUFVTTU,2,,25,2022,2kFemale/F80,2kFemale/F218,1,2,2kFemale/F430,2kFemale/F80,2kFemale/F218
2,3F6KKYWMNC7W5KEZX77OR8YIMJQDN9,A1HFM4HUTEN5U0,37AQKJ12TXUZU2HNQQODGRRCUFVTTU,2,,26,4397,2kFemale/F467,2kFemale/F467,http://52.23.229.132/2kFemale/F900.jpg,2,1,2kFemale/F861,2kFemale/F900,2kFemale/F467
2,3F6KKYWMNC7W5KEZX77OR8YIMJQDN9,A1HFM4HUTEN5U0,37AQKJ12TXUZU2HNQQODGRRCUFVTTU,2,,27,5768,2kFemale/F231,2kFemale/F231,http://52.23.229.132/2kFemale/F372.jpg,1,0,2kFemale/F372,2kFemale/F231,2kFemale/F385
2,3F6KKYWMNC7W5KEZX77OR8YIMJQDN9,A1HFM4HUTEN5U0,37AQKJ12TXUZU2HNQQODGRRCUFVTTU,2,,28,2644,2kFemale/F52,2kFemale/F73,2,1,2kFemale/F542,2kFemale/F73,2kFemale/F52
2,3F6KKYWMNC7W5KEZX77OR8YIMJQDN9,A1HFM4HUTEN5U0,37AQKJ12TXUZU2HNQQODGRRCUFVTTU,2,,29,1987,2kFemale/F161,2kFemale/F41,2,1,2kFemale/F15,2kFemale/F41,2kFemale/F161
2,3F6KKYWMNC7W5KEZX77OR8YIMJQDN9,A1HFM4HUTEN5U0,37AQKJ12TXUZU2HNQQODGRRCUFVTTU,2,,30,3400,2kFemale/F337,2kFemale/F224,1,0,2kFemale/F224,2kFemale/F337,2kFemale/F781
2,3F6KKYWMNC7W5KEZX77OR8YIMJQDN9,A1HFM4HUTEN5U0,37AQKJ12TXUZU2HNQQODGRRCUFVTTU,2,,31,2441,2kFemale/F593,2kFemale/F813,1,0,2kFemale/F813,2kFemale/F593,2kFemale/F334
2,3F6KKYWMNC7W5KEZX77OR8YIMJQDN9,A1HFM4HUTEN5U0,37AQKJ12TXUZU2HNQQODGRRCUFVTTU,2,,32,2573,2kFemale/F321,2kFemale/F12,1,0,2kFemale/F12,2kFemale/F321,2kFemale/F155
2,3F6KKYWMNC7W5KEZX77OR8YIMJQDN9,A1HFM4HUTEN5U0,37AQKJ12TXUZU2HNQQODGRRCUFVTTU,2,,33,1917,2kFemale/F114,2kFemale/F474,1,2,2kFemale/F155,2kFemale/F114,2kFemale/F474
2,3F6KKYWMNC7W5KEZX77OR8YIMJQDN9,A1HFM4HUTEN5U0,37AQKJ12TXUZU2HNQQODGRRCUFVTTU,2,,34,2115,2kFemale/F657,2kFemale/F624,1,0,2kFemale/F624,2kFemale/F657,2kFemale/F712
2,3F6KKYWMNC7W5KEZX77OR8YIMJQDN9,A1HFM4HUTEN5U0,37AQKJ12TXUZU2HNQQODGRRCUFVTTU,2,,35,2060,2kFemale/F81,2kFemale/F828,1,0,2kFemale/F828,2kFemale/F81,2kFemale/F381
2,3F6KKYWMNC7W5KEZX77OR8YIMJQDN9,A1HFM4HUTEN5U0,37AQKJ12TXUZU2HNQQODGRRCUFVTTU,2,,36,3163,2kFemale/F325,2kFemale/F557,1,2,2kFemale/F915,2kFemale/F325,2kFemale/F557
2,3F6KKYWMNC7W5KEZX77OR8YIMJQDN9,A1HFM4HUTEN5U0,37AQKJ12TXUZU2HNQQODGRRCUFVTTU,2,,37,1814,2kFemale/F648,2kFemale/F623,1,2,2kFemale/F264,2kFemale/F648,2kFemale/F623
2,3F6KKYWMNC7W5KEZX77OR8YIMJQDN9,A1HFM4HUTEN5U0,37AQKJ12TXUZU2HNQQODGRRCUFVTTU,2,,38,2581,2kFemale/F587,2kFemale/F240,1,0,2kFemale/F240,2kFemale/F587,2kFemale/F451
2,3F6KKYWMNC7W5KEZX77OR8YIMJQDN9,A1HFM4HUTEN5U0,37AQKJ12TXUZU2HNQQODGRRCUFVTTU,2,,39,3080,2kFemale/F106,2kFemale/F352,1,0,2kFemale/F352,2kFemale/F106,2kFemale/F743
2,3F6KKYWMNC7W5KEZX77OR8YIMJQDN9,A1HFM4HUTEN5U0,37AQKJ12TXUZU2HNQQODGRRCUFVTTU,2,,40,1784,2kFemale/F574,2kFemale/F158,1,0,2kFemale/F158,2kFemale/F574,2kFemale/F251
2,3F6KKYWMNC7W5KEZX77OR8YIMJQDN9,A1HFM4HUTEN5U0,37AQKJ12TXUZU2HNQQODGRRCUFVTTU,2,,41,1541,2kFemale/F912,2kFemale/F57,0,2,2kFemale/F912,2kFemale/F548,2kFemale/F57
2,3F6KKYWMNC7W5KEZX77OR8YIMJQDN9,A1HFM4HUTEN5U0,37AQKJ12TXUZU2HNQQODGRRCUFVTTU,2,,42,1585,2kFemale/F102,2kFemale/F422,1,0,2kFemale/F422,2kFemale/F102,2kFemale/F915
2,3F6KKYWMNC7W5KEZX77OR8YIMJQDN9,A1HFM4HUTEN5U0,37AQKJ12TXUZU2HNQQODGRRCUFVTTU,2,,43,3946,2kFemale/F126,2kFemale/F896,1,2,2kFemale/F92,2kFemale/F126,2kFemale/F896
2,3F6KKYWMNC7W5KEZX77OR8YIMJQDN9,A1HFM4HUTEN5U0,37AQKJ12TXUZU2HNQQODGRRCUFVTTU,2,,44,3016,2kFemale/F364,2kFemale/F757,0,2,2kFemale/F364,2kFemale/F729,2kFemale/F757
2,3F6KKYWMNC7W5KEZX77OR8YIMJQDN9,A1HFM4HUTEN5U0,37AQKJ12TXUZU2HNQQODGRRCUFVTTU,2,,45,6693,2kFemale/F514,2kFemale/F75,0,2,2kFemale/F514,2kFemale/F949,2kFemale/F75
2,3F6KKYWMNC7W5KEZX77OR8YIMJQDN9,A1HFM4HUTEN5U0,37AQKJ12TXUZU2HNQQODGRRCUFVTTU,2,,46,3512,2kFemale/F467,2kFemale/F179,1,0,2kFemale/F179,2kFemale/F467,2kFemale/F424
2,3F6KKYWMNC7W5KEZX77OR8YIMJQDN9,A1HFM4HUTEN5U0,37AQKJ12TXUZU2HNQQODGRRCUFVTTU,2,,47,2839,2kFemale/F229,2kFemale/F175,0,2,2kFemale/F229,2kFemale/F118,2kFemale/F175
2,3F6KKYWMNC7W5KEZX77OR8YIMJQDN9,A1HFM4HUTEN5U0,37AQKJ12TXUZU2HNQQODGRRCUFVTTU,2,,48,3169,2kFemale/F762,2kFemale/F411,1,2,2kFemale/F248,2kFemale/F762,2kFemale/F411
2,3F6KKYWMNC7W5KEZX77OR8YIMJQDN9,A1HFM4HUTEN5U0,37AQKJ12TXUZU2HNQQODGRRCUFVTTU,2,,49,2719,2kFemale/F5,2kFemale/F778,0,2,2kFemale/F5,2kFemale/F738,2kFemale/F778
2,3F6KKYWMNC7W5KEZX77OR8YIMJQDN9,A1HFM4HUTEN5U0,37AQKJ12TXUZU2HNQQODGRRCUFVTTU,2,,50,2190,2kFemale/F868,2kFemale/F251,0,2,2kFemale/F868,2kFemale/F174,2kFemale/F251
2,3F6KKYWMNC7W5KEZX77OR8YIMJQDN9,A1HFM4HUTEN5U0,37AQKJ12TXUZU2HNQQODGRRCUFVTTU,2,,51,2908,2kFemale/F662,2kFemale/F302,1,2,2kFemale/F785,2kFemale/F662,2kFemale/F302
2,3F6KKYWMNC7W5KEZX77OR8YIMJQDN9,A1HFM4HUTEN5U0,37AQKJ12TXUZU2HNQQODGRRCUFVTTU,2,,52,2243,2kFemale/F362,2kFemale/F718,2,1,2kFemale/F722,2kFemale/F718,2kFemale/F362
2,3F6KKYWMNC7W5KEZX77OR8YIMJQDN9,A1HFM4HUTEN5U0,37AQKJ12TXUZU2HNQQODGRRCUFVTTU,2,,53,3458,2kFemale/F757,2kFemale/F297,0,1,2kFemale/F757,2kFemale/F297,2kFemale/F503
2,3F6KKYWMNC7W5KEZX77OR8YIMJQDN9,A1HFM4HUTEN5U0,37AQKJ12TXUZU2HNQQODGRRCUFVTTU,2,,54,2907,2kFemale/F557,2kFemale/F791,2,1,2kFemale/F336,2kFemale/F791,2kFemale/F557
2,3F6KKYWMNC7W5KEZX77OR8YIMJQDN9,A1HFM4HUTEN5U0,37AQKJ12TXUZU2HNQQODGRRCUFVTTU,2,,55,4116,2kFemale/F521,2kFemale/F915,1,0,2kFemale/F915,2kFemale/F521,2kFemale/F132
2,3F6KKYWMNC7W5KEZX77OR8YIMJQDN9,A1HFM4HUTEN5U0,37AQKJ12TXUZU2HNQQODGRRCUFVTTU,2,,56,3822,2kFemale/F718,2kFemale/F616,2,0,2kFemale/F616,2kFemale/F676,2kFemale/F718
2,3F6KKYWMNC7W5KEZX77OR8YIMJQDN9,A1HFM4HUTEN5U0,37AQKJ12TXUZU2HNQQODGRRCUFVTTU,2,,57,5851,2kFemale/F874,2kFemale/F524,1,0,2kFemale/F524,2kFemale/F874,2kFemale/F272
2,3F6KKYWMNC7W5KEZX77OR8YIMJQDN9,A1HFM4HUTEN5U0,37AQKJ12TXUZU2HNQQODGRRCUFVTTU,2,,58,2171,2kFemale/F243,2kFemale/F232,0,2,2kFemale/F243,2kFemale/F776,2kFemale/F232
2,3F6KKYWMNC7W5KEZX77OR8YIMJQDN9,A1HFM4HUTEN5U0,37AQKJ12TXUZU2HNQQODGRRCUFVTTU,2,,59,5973,2kFemale/F848,2kFemale/F483,2,0,2kFemale/F483,2kFemale/F666,2kFemale/F848
2,3F6KKYWMNC7W5KEZX77OR8YIMJQDN9,A1HFM4HUTEN5U0,37AQKJ12TXUZU2HNQQODGRRCUFVTTU,2,,60,2725,2kFemale/F93,2kFemale/F264,2,0,2kFemale/F264,2kFemale/F44,2kFemale/F93
2,3F6KKYWMNC7W5KEZX77OR8YIMJQDN9,A1HFM4HUTEN5U0,37AQKJ12TXUZU2HNQQODGRRCUFVTTU,2,,61,1684,2kFemale/F143,2kFemale/F800,0,2,2kFemale/F143,2kFemale/F246,2kFemale/F800
2,3F6KKYWMNC7W5KEZX77OR8YIMJQDN9,A1HFM4HUTEN5U0,37AQKJ12TXUZU2HNQQODGRRCUFVTTU,2,,62,2150,2kFemale/F553,2kFemale/F138,0,2,2kFemale/F553,2kFemale/F524,2kFemale/F138
2,3F6KKYWMNC7W5KEZX77OR8YIMJQDN9,A1HFM4HUTEN5U0,37AQKJ12TXUZU2HNQQODGRRCUFVTTU,2,,63,2415,2kFemale/F229,2kFemale/F48,0,2,2kFemale/F229,2kFemale/F398,2kFemale/F48
2,3F6KKYWMNC7W5KEZX77OR8YIMJQDN9,A1HFM4HUTEN5U0,37AQKJ12TXUZU2HNQQODGRRCUFVTTU,3,,64,3126,2kFemale/F12,2kFemale/F12,true,true,2kFemale/F321,2kFemale/F12,2kFemale/F12
2,3F6KKYWMNC7W5KEZX77OR8YIMJQDN9,A1HFM4HUTEN5U0,37AQKJ12TXUZU2HNQQODGRRCUFVTTU,2,,65,3663,2kFemale/F82,2kFemale/F484,1,0,2kFemale/F484,2kFemale/F82,2kFemale/F250
2,3F6KKYWMNC7W5KEZX77OR8YIMJQDN9,A1HFM4HUTEN5U0,37AQKJ12TXUZU2HNQQODGRRCUFVTTU,2,,66,2884,2kFemale/F679,2kFemale/F476,1,2,2kFemale/F933,2kFemale/F679,2kFemale/F476
2,3F6KKYWMNC7W5KEZX77OR8YIMJQDN9,A1HFM4HUTEN5U0,37AQKJ12TXUZU2HNQQODGRRCUFVTTU,2,,67,2997,2kFemale/F524,2kFemale/F592,1,2,2kFemale/F835,2kFemale/F524,2kFemale/F592
2,3F6KKYWMNC7W5KEZX77OR8YIMJQDN9,A1HFM4HUTEN5U0,37AQKJ12TXUZU2HNQQODGRRCUFVTTU,2,,68,2166,2kFemale/F884,2kFemale/F744,2,0,2kFemale/F744,2kFemale/F78,2kFemale/F884
2,3F6KKYWMNC7W5KEZX77OR8YIMJQDN9,A1HFM4HUTEN5U0,37AQKJ12TXUZU2HNQQODGRRCUFVTTU,2,,69,2222,2kFemale/F334,2kFemale/F893,1,2,2kFemale/F508,2kFemale/F334,2kFemale/F893
2,3F6KKYWMNC7W5KEZX77OR8YIMJQDN9,A1HFM4HUTEN5U0,37AQKJ12TXUZU2HNQQODGRRCUFVTTU,2,,70,4289,2kFemale/F464,2kFemale/F740,1,0,2kFemale/F740,2kFemale/F464,2kFemale/F415
2,3F6KKYWMNC7W5KEZX77OR8YIMJQDN9,A1HFM4HUTEN5U0,37AQKJ12TXUZU2HNQQODGRRCUFVTTU,2,,71,9370,2kFemale/F57,2kFemale/F649,1,2,2kFemale/F449,2kFemale/F57,2kFemale/F649
2,3F6KKYWMNC7W5KEZX77OR8YIMJQDN9,A1HFM4HUTEN5U0,37AQKJ12TXUZU2HNQQODGRRCUFVTTU,2,,72,2237,2kFemale/F304,2kFemale/F283,1,0,2kFemale/F283,2kFemale/F304,2kFemale/F404
2,3F6KKYWMNC7W5KEZX77OR8YIMJQDN9,A1HFM4HUTEN5U0,37AQKJ12TXUZU2HNQQODGRRCUFVTTU,2,,73,2099,2kFemale/F497,2kFemale/F522,1,0,2kFemale/F522,2kFemale/F497,2kFemale/F221
2,3F6KKYWMNC7W5KEZX77OR8YIMJQDN9,A1HFM4HUTEN5U0,37AQKJ12TXUZU2HNQQODGRRCUFVTTU,2,,74,1416,2kFemale/F471,2kFemale/F681,0,2,2kFemale/F471,2kFemale/F742,2kFemale/F681
2,3F6KKYWMNC7W5KEZX77OR8YIMJQDN9,A1HFM4HUTEN5U0,37AQKJ12TXUZU2HNQQODGRRCUFVTTU,2,,75,1785,2kFemale/F863,2kFemale/F418,0,2,2kFemale/F863,2kFemale/F933,2kFemale/F418
2,3F6KKYWMNC7W5KEZX77OR8YIMJQDN9,A1HFM4HUTEN5U0,37AQKJ12TXUZU2HNQQODGRRCUFVTTU,2,,76,1436,2kFemale/F862,2kFemale/F849,0,1,2kFemale/F862,2kFemale/F849,2kFemale/F318
2,3F6KKYWMNC7W5KEZX77OR8YIMJQDN9,A1HFM4HUTEN5U0,37AQKJ12TXUZU2HNQQODGRRCUFVTTU,2,,77,3101,2kFemale/F648,2kFemale/F130,1,2,2kFemale/F320,2kFemale/F648,2kFemale/F130
2,3F6KKYWMNC7W5KEZX77OR8YIMJQDN9,A1HFM4HUTEN5U0,37AQKJ12TXUZU2HNQQODGRRCUFVTTU,2,,78,1986,2kFemale/F93,2kFemale/F778,0,2,2kFemale/F93,2kFemale/F779,2kFemale/F778
2,3F6KKYWMNC7W5KEZX77OR8YIMJQDN9,A1HFM4HUTEN5U0,37AQKJ12TXUZU2HNQQODGRRCUFVTTU,2,,79,2238,2kFemale/F361,2kFemale/F615,1,0,2kFemale/F615,2kFemale/F361,2kFemale/F772
2,3F6KKYWMNC7W5KEZX77OR8YIMJQDN9,A1HFM4HUTEN5U0,37AQKJ12TXUZU2HNQQODGRRCUFVTTU,2,,80,3355,2kFemale/F410,2kFemale/F176,1,2,2kFemale/F880,2kFemale/F410,2kFemale/F176
2,3F6KKYWMNC7W5KEZX77OR8YIMJQDN9,A1HFM4HUTEN5U0,37AQKJ12TXUZU2HNQQODGRRCUFVTTU,3,,81,1758,2kFemale/F764,2kFemale/F764,true,true,2kFemale/F28,2kFemale/F764,2kFemale/F764
2,3F6KKYWMNC7W5KEZX77OR8YIMJQDN9,A1HFM4HUTEN5U0,37AQKJ12TXUZU2HNQQODGRRCUFVTTU,2,,82,2957,2kFemale/F467,2kFemale/F28,1,0,2kFemale/F28,2kFemale/F467,2kFemale/F160
2,3F6KKYWMNC7W5KEZX77OR8YIMJQDN9,A1HFM4HUTEN5U0,37AQKJ12TXUZU2HNQQODGRRCUFVTTU,2,,83,2668,2kFemale/F574,2kFemale/F250,2,1,2kFemale/F567,2kFemale/F250,2kFemale/F574
2,3F6KKYWMNC7W5KEZX77OR8YIMJQDN9,A1HFM4HUTEN5U0,37AQKJ12TXUZU2HNQQODGRRCUFVTTU,2,,84,2359,2kFemale/F759,2kFemale/F250,0,2,2kFemale/F759,2kFemale/F94,2kFemale/F250
2,3F6KKYWMNC7W5KEZX77OR8YIMJQDN9,A1HFM4HUTEN5U0,37AQKJ12TXUZU2HNQQODGRRCUFVTTU,2,,85,2339,2kFemale/F863,2kFemale/F588,0,2,2kFemale/F863,2kFemale/F581,2kFemale/F588
2,3F6KKYWMNC7W5KEZX77OR8YIMJQDN9,A1HFM4HUTEN5U0,37AQKJ12TXUZU2HNQQODGRRCUFVTTU,2,,86,2582,2kFemale/F102,2kFemale/F622,1,2,2kFemale/F688,2kFemale/F102,2kFemale/F622
2,3F6KKYWMNC7W5KEZX77OR8YIMJQDN9,A1HFM4HUTEN5U0,37AQKJ12TXUZU2HNQQODGRRCUFVTTU,2,,87,3422,2kFemale/F227,2kFemale/F437,0,1,2kFemale/F227,2kFemale/F437,2kFemale/F916
2,3F6KKYWMNC7W5KEZX77OR8YIMJQDN9,A1HFM4HUTEN5U0,37AQKJ12TXUZU2HNQQODGRRCUFVTTU,2,,88,1582,2kFemale/F351,2kFemale/F595,1,2,2kFemale/F175,2kFemale/F351,2kFemale/F595
2,3F6KKYWMNC7W5KEZX77OR8YIMJQDN9,A1HFM4HUTEN5U0,37AQKJ12TXUZU2HNQQODGRRCUFVTTU,2,,89,2558,2kFemale/F69,2kFemale/F497,1,2,2kFemale/F41,2kFemale/F69,2kFemale/F497
2,3F6KKYWMNC7W5KEZX77OR8YIMJQDN9,A1HFM4HUTEN5U0,37AQKJ12TXUZU2HNQQODGRRCUFVTTU,2,,90,2678,2kFemale/F143,2kFemale/F689,1,0,2kFemale/F689,2kFemale/F143,2kFemale/F628
2,3F6KKYWMNC7W5KEZX77OR8YIMJQDN9,A1HFM4HUTEN5U0,37AQKJ12TXUZU2HNQQODGRRCUFVTTU,2,,91,3268,2kFemale/F787,2kFemale/F127,0,2,2kFemale/F787,2kFemale/F80,2kFemale/F127
2,3F6KKYWMNC7W5KEZX77OR8YIMJQDN9,A1HFM4HUTEN5U0,37AQKJ12TXUZU2HNQQODGRRCUFVTTU,2,,92,1962,2kFemale/F220,2kFemale/F803,1,2,2kFemale/F449,2kFemale/F220,2kFemale/F803
2,3F6KKYWMNC7W5KEZX77OR8YIMJQDN9,A1HFM4HUTEN5U0,37AQKJ12TXUZU2HNQQODGRRCUFVTTU,2,,93,1922,2kFemale/F521,2kFemale/F282,1,2,2kFemale/F430,2kFemale/F521,2kFemale/F282
2,3F6KKYWMNC7W5KEZX77OR8YIMJQDN9,A1HFM4HUTEN5U0,37AQKJ12TXUZU2HNQQODGRRCUFVTTU,2,,94,2386,2kFemale/F180,2kFemale/F710,1,0,2kFemale/F710,2kFemale/F180,2kFemale/F654
2,3F6KKYWMNC7W5KEZX77OR8YIMJQDN9,A1HFM4HUTEN5U0,37AQKJ12TXUZU2HNQQODGRRCUFVTTU,2,,95,3413,2kFemale/F380,2kFemale/F58,2,1,2kFemale/F766,2kFemale/F58,2kFemale/F380
2,3F6KKYWMNC7W5KEZX77OR8YIMJQDN9,A1HFM4HUTEN5U0,37AQKJ12TXUZU2HNQQODGRRCUFVTTU,2,,96,3124,2kFemale/F884,2kFemale/F28,2,1,2kFemale/F764,2kFemale/F28,2kFemale/F884
2,3F6KKYWMNC7W5KEZX77OR8YIMJQDN9,A1HFM4HUTEN5U0,37AQKJ12TXUZU2HNQQODGRRCUFVTTU,2,,97,3236,2kFemale/F560,2kFemale/F287,0,2,2kFemale/F560,2kFemale/F198,2kFemale/F287
2,3F6KKYWMNC7W5KEZX77OR8YIMJQDN9,A1HFM4HUTEN5U0,37AQKJ12TXUZU2HNQQODGRRCUFVTTU,2,,98,1767,2kFemale/F595,2kFemale/F646,1,2,2kFemale/F466,2kFemale/F595,2kFemale/F646
2,3F6KKYWMNC7W5KEZX77OR8YIMJQDN9,A1HFM4HUTEN5U0,37AQKJ12TXUZU2HNQQODGRRCUFVTTU,2,,99,2035,2kFemale/F697,2kFemale/F619,1,0,2kFemale/F619,2kFemale/F697,2kFemale/F617
2,3F6KKYWMNC7W5KEZX77OR8YIMJQDN9,A1HFM4HUTEN5U0,37AQKJ12TXUZU2HNQQODGRRCUFVTTU,2,,100,2433,2kFemale/F927,2kFemale/F495,1,0,2kFemale/F495,2kFemale/F927,2kFemale/F618
2,3F6KKYWMNC7W5KEZX77OR8YIMJQDN9,A1HFM4HUTEN5U0,37AQKJ12TXUZU2HNQQODGRRCUFVTTU,2,,101,3313,2kFemale/F217,2kFemale/F296,0,2,2kFemale/F217,2kFemale/F415,2kFemale/F296
2,3F6KKYWMNC7W5KEZX77OR8YIMJQDN9,A1HFM4HUTEN5U0,37AQKJ12TXUZU2HNQQODGRRCUFVTTU,2,,102,1722,2kFemale/F426,2kFemale/F292,0,1,2kFemale/F426,2kFemale/F292,2kFemale/F484
2,3F6KKYWMNC7W5KEZX77OR8YIMJQDN9,A1HFM4HUTEN5U0,37AQKJ12TXUZU2HNQQODGRRCUFVTTU,2,,103,1933,2kFemale/F166,2kFemale/F791,0,2,2kFemale/F166,2kFemale/F373,2kFemale/F791
2,3F6KKYWMNC7W5KEZX77OR8YIMJQDN9,A1HFM4HUTEN5U0,37AQKJ12TXUZU2HNQQODGRRCUFVTTU,2,,104,2337,2kFemale/F229,2kFemale/F844,1,2,2kFemale/F175,2kFemale/F229,2kFemale/F844
2,3F6KKYWMNC7W5KEZX77OR8YIMJQDN9,A1HFM4HUTEN5U0,37AQKJ12TXUZU2HNQQODGRRCUFVTTU,2,,105,2497,2kFemale/F216,2kFemale/F186,1,0,2kFemale/F186,2kFemale/F216,2kFemale/F163
2,3F6KKYWMNC7W5KEZX77OR8YIMJQDN9,A1HFM4HUTEN5U0,37AQKJ12TXUZU2HNQQODGRRCUFVTTU,2,,106,1986,2kFemale/F189,2kFemale/F666,1,0,2kFemale/F666,2kFemale/F189,2kFemale/F30
2,3F6KKYWMNC7W5KEZX77OR8YIMJQDN9,A1HFM4HUTEN5U0,37AQKJ12TXUZU2HNQQODGRRCUFVTTU,2,,107,1887,2kFemale/F487,2kFemale/F756,0,2,2kFemale/F487,2kFemale/F779,2kFemale/F756
2,3F6KKYWMNC7W5KEZX77OR8YIMJQDN9,A1HFM4HUTEN5U0,37AQKJ12TXUZU2HNQQODGRRCUFVTTU,2,,108,2721,2kFemale/F106,2kFemale/F389,0,2,2kFemale/F106,2kFemale/F246,2kFemale/F389
2,3F6KKYWMNC7W5KEZX77OR8YIMJQDN9,A1HFM4HUTEN5U0,37AQKJ12TXUZU2HNQQODGRRCUFVTTU,2,,109,2108,2kFemale/F767,2kFemale/F820,1,0,2kFemale/F820,2kFemale/F767,2kFemale/F549
2,3F6KKYWMNC7W5KEZX77OR8YIMJQDN9,A1HFM4HUTEN5U0,37AQKJ12TXUZU2HNQQODGRRCUFVTTU,2,,110,2581,2kFemale/F212,2kFemale/F112,1,2,2kFemale/F678,2kFemale/F212,2kFemale/F112
2,3F6KKYWMNC7W5KEZX77OR8YIMJQDN9,A1HFM4HUTEN5U0,37AQKJ12TXUZU2HNQQODGRRCUFVTTU,2,,111,2056,2kFemale/F869,2kFemale/F36,2,0,2kFemale/F36,2kFemale/F843,2kFemale/F869
2,3F6KKYWMNC7W5KEZX77OR8YIMJQDN9,A1HFM4HUTEN5U0,37AQKJ12TXUZU2HNQQODGRRCUFVTTU,2,,112,2978,2kFemale/F477,2kFemale/F710,1,0,2kFemale/F710,2kFemale/F477,2kFemale/F457
2,3F6KKYWMNC7W5KEZX77OR8YIMJQDN9,A1HFM4HUTEN5U0,37AQKJ12TXUZU2HNQQODGRRCUFVTTU,2,,113,3132,2kFemale/F377,2kFemale/F940,0,2,2kFemale/F377,2kFemale/F350,2kFemale/F940
2,3F6KKYWMNC7W5KEZX77OR8YIMJQDN9,A1HFM4HUTEN5U0,37AQKJ12TXUZU2HNQQODGRRCUFVTTU,2,,114,5717,2kFemale/F412,2kFemale/F433,2,1,2kFemale/F763,2kFemale/F433,2kFemale/F412
2,3F6KKYWMNC7W5KEZX77OR8YIMJQDN9,A1HFM4HUTEN5U0,37AQKJ12TXUZU2HNQQODGRRCUFVTTU,2,,115,2886,2kFemale/F697,2kFemale/F551,0,2,2kFemale/F697,2kFemale/F466,2kFemale/F551
2,3F6KKYWMNC7W5KEZX77OR8YIMJQDN9,A1HFM4HUTEN5U0,37AQKJ12TXUZU2HNQQODGRRCUFVTTU,2,,117,2949,2kFemale/F264,2kFemale/F93,0,2,2kFemale/F264,2kFemale/F44,2kFemale/F93
2,3F6KKYWMNC7W5KEZX77OR8YIMJQDN9,A1HFM4HUTEN5U0,37AQKJ12TXUZU2HNQQODGRRCUFVTTU,2,,118,1998,2kFemale/F874,2kFemale/F272,1,2,2kFemale/F524,2kFemale/F874,2kFemale/F272
2,3F6KKYWMNC7W5KEZX77OR8YIMJQDN9,A1HFM4HUTEN5U0,37AQKJ12TXUZU2HNQQODGRRCUFVTTU,2,,119,46952,2kFemale/F33,2kFemale/F906,1,0,2kFemale/F906,2kFemale/F33,2kFemale/F418
2,3F6KKYWMNC7W5KEZX77OR8YIMJQDN9,A1HFM4HUTEN5U0,37AQKJ12TXUZU2HNQQODGRRCUFVTTU,2,,120,3179,2kFemale/F146,2kFemale/F786,1,2,2kFemale/F871,2kFemale/F146,2kFemale/F786
2,3F6KKYWMNC7W5KEZX77OR8YIMJQDN9,A1HFM4HUTEN5U0,37AQKJ12TXUZU2HNQQODGRRCUFVTTU,2,,121,2910,2kFemale/F912,2kFemale/F57,0,2,2kFemale/F912,2kFemale/F548,2kFemale/F57
2,3F6KKYWMNC7W5KEZX77OR8YIMJQDN9,A1HFM4HUTEN5U0,37AQKJ12TXUZU2HNQQODGRRCUFVTTU,2,,122,2013,2kFemale/F587,2kFemale/F240,1,0,2kFemale/F240,2kFemale/F587,2kFemale/F451
2,3F6KKYWMNC7W5KEZX77OR8YIMJQDN9,A1HFM4HUTEN5U0,37AQKJ12TXUZU2HNQQODGRRCUFVTTU,2,,123,2378,2kFemale/F251,2kFemale/F868,2,0,2kFemale/F868,2kFemale/F174,2kFemale/F251
2,3F6KKYWMNC7W5KEZX77OR8YIMJQDN9,A1HFM4HUTEN5U0,37AQKJ12TXUZU2HNQQODGRRCUFVTTU,2,,124,1733,2kFemale/F73,2kFemale/F52,1,2,2kFemale/F542,2kFemale/F73,2kFemale/F52
2,3F6KKYWMNC7W5KEZX77OR8YIMJQDN9,A1HFM4HUTEN5U0,37AQKJ12TXUZU2HNQQODGRRCUFVTTU,2,,125,1531,2kFemale/F81,2kFemale/F828,1,0,2kFemale/F828,2kFemale/F81,2kFemale/F381
2,3F6KKYWMNC7W5KEZX77OR8YIMJQDN9,A1HFM4HUTEN5U0,37AQKJ12TXUZU2HNQQODGRRCUFVTTU,2,,126,1863,2kFemale/F352,2kFemale/F743,0,2,2kFemale/F352,2kFemale/F106,2kFemale/F743
2,3F6KKYWMNC7W5KEZX77OR8YIMJQDN9,A1HFM4HUTEN5U0,37AQKJ12TXUZU2HNQQODGRRCUFVTTU,2,,127,2370,2kFemale/F676,2kFemale/F616,1,0,2kFemale/F616,2kFemale/F676,2kFemale/F718
2,3F6KKYWMNC7W5KEZX77OR8YIMJQDN9,A1HFM4HUTEN5U0,37AQKJ12TXUZU2HNQQODGRRCUFVTTU,2,,128,1926,2kFemale/F757,2kFemale/F503,0,2,2kFemale/F757,2kFemale/F297,2kFemale/F503
2,3F6KKYWMNC7W5KEZX77OR8YIMJQDN9,A1HFM4HUTEN5U0,37AQKJ12TXUZU2HNQQODGRRCUFVTTU,2,,129,3871,2kFemale/F557,2kFemale/F915,2,0,2kFemale/F915,2kFemale/F325,2kFemale/F557
2,3F6KKYWMNC7W5KEZX77OR8YIMJQDN9,A1HFM4HUTEN5U0,37AQKJ12TXUZU2HNQQODGRRCUFVTTU,2,,130,3401,2kFemale/F666,2kFemale/F483,1,0,2kFemale/F483,2kFemale/F666,2kFemale/F848
2,3F6KKYWMNC7W5KEZX77OR8YIMJQDN9,A1HFM4HUTEN5U0,37AQKJ12TXUZU2HNQQODGRRCUFVTTU,2,,131,1887,2kFemale/F92,2kFemale/F126,0,1,2kFemale/F92,2kFemale/F126,2kFemale/F896
2,3F6KKYWMNC7W5KEZX77OR8YIMJQDN9,A1HFM4HUTEN5U0,37AQKJ12TXUZU2HNQQODGRRCUFVTTU,2,,132,2365,2kFemale/F447,2kFemale/F124,2,0,2kFemale/F124,2kFemale/F542,2kFemale/F447
2,3F6KKYWMNC7W5KEZX77OR8YIMJQDN9,A1HFM4HUTEN5U0,37AQKJ12TXUZU2HNQQODGRRCUFVTTU,2,,133,3429,2kFemale/F139,2kFemale/F130,0,1,2kFemale/F139,2kFemale/F130,2kFemale/F827
2,3F6KKYWMNC7W5KEZX77OR8YIMJQDN9,A1HFM4HUTEN5U0,37AQKJ12TXUZU2HNQQODGRRCUFVTTU,2,,134,12683,2kFemale/F709,2kFemale/F374,0,1,2kFemale/F709,2kFemale/F374,2kFemale/F624
2,3F6KKYWMNC7W5KEZX77OR8YIMJQDN9,A1HFM4HUTEN5U0,37AQKJ12TXUZU2HNQQODGRRCUFVTTU,2,,135,2458,2kFemale/F506,2kFemale/F889,0,2,2kFemale/F506,2kFemale/F742,2kFemale/F889
2,3F6KKYWMNC7W5KEZX77OR8YIMJQDN9,A1HFM4HUTEN5U0,37AQKJ12TXUZU2HNQQODGRRCUFVTTU,2,,136,2646,2kFemale/F158,2kFemale/F251,0,2,2kFemale/F158,2kFemale/F574,2kFemale/F251
2,3F6KKYWMNC7W5KEZX77OR8YIMJQDN9,A1HFM4HUTEN5U0,37AQKJ12TXUZU2HNQQODGRRCUFVTTU,2,,137,2503,2kFemale/F302,2kFemale/F785,2,0,2kFemale/F785,2kFemale/F662,2kFemale/F302
2,3F6KKYWMNC7W5KEZX77OR8YIMJQDN9,A1HFM4HUTEN5U0,37AQKJ12TXUZU2HNQQODGRRCUFVTTU,2,,138,2739,2kFemale/F229,2kFemale/F48,0,2,2kFemale/F229,2kFemale/F398,2kFemale/F48
2,3F6KKYWMNC7W5KEZX77OR8YIMJQDN9,A1HFM4HUTEN5U0,37AQKJ12TXUZU2HNQQODGRRCUFVTTU,2,,139,3435,2kFemale/F718,2kFemale/F722,1,0,2kFemale/F722,2kFemale/F718,2kFemale/F362
2,3F6KKYWMNC7W5KEZX77OR8YIMJQDN9,A1HFM4HUTEN5U0,37AQKJ12TXUZU2HNQQODGRRCUFVTTU,2,,140,2495,2kFemale/F467,2kFemale/F179,1,0,2kFemale/F179,2kFemale/F467,2kFemale/F424
2,3F6KKYWMNC7W5KEZX77OR8YIMJQDN9,A1HFM4HUTEN5U0,37AQKJ12TXUZU2HNQQODGRRCUFVTTU,2,,141,1950,2kFemale/F5,2kFemale/F778,0,2,2kFemale/F5,2kFemale/F738,2kFemale/F778
2,3F6KKYWMNC7W5KEZX77OR8YIMJQDN9,A1HFM4HUTEN5U0,37AQKJ12TXUZU2HNQQODGRRCUFVTTU,2,,142,2498,2kFemale/F514,2kFemale/F75,0,2,2kFemale/F514,2kFemale/F949,2kFemale/F75
2,3F6KKYWMNC7W5KEZX77OR8YIMJQDN9,A1HFM4HUTEN5U0,37AQKJ12TXUZU2HNQQODGRRCUFVTTU,2,,143,5339,2kFemale/F813,2kFemale/F813,http://52.23.229.132/2kFemale/F813.jpg,http://52.23.229.132/2kFemale/F813.jpg,http://52.23.229.132/2kFemale/F813.jpg,http://52.23.229.132/2kFemale/F334.jpg,0,2,2kFemale/F813,2kFemale/F593,2kFemale/F334
2,3F6KKYWMNC7W5KEZX77OR8YIMJQDN9,A1HFM4HUTEN5U0,37AQKJ12TXUZU2HNQQODGRRCUFVTTU,2,,144,1862,2kFemale/F143,2kFemale/F800,0,2,2kFemale/F143,2kFemale/F246,2kFemale/F800
2,3F6KKYWMNC7W5KEZX77OR8YIMJQDN9,A1HFM4HUTEN5U0,37AQKJ12TXUZU2HNQQODGRRCUFVTTU,2,,145,2787,2kFemale/F229,2kFemale/F175,0,2,2kFemale/F229,2kFemale/F118,2kFemale/F175
2,3F6KKYWMNC7W5KEZX77OR8YIMJQDN9,A1HFM4HUTEN5U0,37AQKJ12TXUZU2HNQQODGRRCUFVTTU,2,,146,2637,2kFemale/F729,2kFemale/F757,1,2,2kFemale/F364,2kFemale/F729,2kFemale/F757
2,3F6KKYWMNC7W5KEZX77OR8YIMJQDN9,A1HFM4HUTEN5U0,37AQKJ12TXUZU2HNQQODGRRCUFVTTU,2,,147,1811,2kFemale/F12,2kFemale/F321,0,1,2kFemale/F12,2kFemale/F321,2kFemale/F155
2,3F6KKYWMNC7W5KEZX77OR8YIMJQDN9,A1HFM4HUTEN5U0,37AQKJ12TXUZU2HNQQODGRRCUFVTTU,2,,148,2431,2kFemale/F553,2kFemale/F138,0,2,2kFemale/F553,2kFemale/F524,2kFemale/F138
2,3F6KKYWMNC7W5KEZX77OR8YIMJQDN9,A1HFM4HUTEN5U0,37AQKJ12TXUZU2HNQQODGRRCUFVTTU,2,,149,3590,2kFemale/F474,2kFemale/F114,2,1,2kFemale/F155,2kFemale/F114,2kFemale/F474
2,3F6KKYWMNC7W5KEZX77OR8YIMJQDN9,A1HFM4HUTEN5U0,37AQKJ12TXUZU2HNQQODGRRCUFVTTU,2,,150,2109,2kFemale/F791,2kFemale/F557,1,2,2kFemale/F336,2kFemale/F791,2kFemale/F557
2,3F6KKYWMNC7W5KEZX77OR8YIMJQDN9,A1HFM4HUTEN5U0,37AQKJ12TXUZU2HNQQODGRRCUFVTTU,2,,151,5251,2kFemale/F224,2kFemale/F781,0,2,2kFemale/F224,2kFemale/F337,2kFemale/F781
2,3F6KKYWMNC7W5KEZX77OR8YIMJQDN9,A1HFM4HUTEN5U0,37AQKJ12TXUZU2HNQQODGRRCUFVTTU,3,,152,2163,2kFemale/F12,2kFemale/F12,true,true,2kFemale/F321,2kFemale/F12,2kFemale/F12
2,3F6KKYWMNC7W5KEZX77OR8YIMJQDN9,A1HFM4HUTEN5U0,37AQKJ12TXUZU2HNQQODGRRCUFVTTU,2,,153,2928,2kFemale/F41,2kFemale/F161,1,2,2kFemale/F15,2kFemale/F41,2kFemale/F161
2,3F6KKYWMNC7W5KEZX77OR8YIMJQDN9,A1HFM4HUTEN5U0,37AQKJ12TXUZU2HNQQODGRRCUFVTTU,2,,154,3608,2kFemale/F467,2kFemale/F861,2,0,2kFemale/F861,2kFemale/F900,2kFemale/F467
2,3F6KKYWMNC7W5KEZX77OR8YIMJQDN9,A1HFM4HUTEN5U0,37AQKJ12TXUZU2HNQQODGRRCUFVTTU,2,,155,2349,2kFemale/F80,2kFemale/F218,1,2,2kFemale/F430,2kFemale/F80,2kFemale/F218
2,3F6KKYWMNC7W5KEZX77OR8YIMJQDN9,A1HFM4HUTEN5U0,37AQKJ12TXUZU2HNQQODGRRCUFVTTU,2,,156,3967,2kFemale/F490,2kFemale/F383,0,1,2kFemale/F490,2kFemale/F383,2kFemale/F73
2,3F6KKYWMNC7W5KEZX77OR8YIMJQDN9,A1HFM4HUTEN5U0,37AQKJ12TXUZU2HNQQODGRRCUFVTTU,2,,157,3548,2kFemale/F915,2kFemale/F102,2,1,2kFemale/F422,2kFemale/F102,2kFemale/F915
2,3F6KKYWMNC7W5KEZX77OR8YIMJQDN9,A1HFM4HUTEN5U0,37AQKJ12TXUZU2HNQQODGRRCUFVTTU,2,,158,1537,2kFemale/F372,2kFemale/F385,0,2,2kFemale/F372,2kFemale/F231,2kFemale/F385
2,3F6KKYWMNC7W5KEZX77OR8YIMJQDN9,A1HFM4HUTEN5U0,37AQKJ12TXUZU2HNQQODGRRCUFVTTU,2,,159,5137,2kFemale/F322,2kFemale/F467,1,0,2kFemale/F467,2kFemale/F322,2kFemale/F856
2,3F6KKYWMNC7W5KEZX77OR8YIMJQDN9,A1HFM4HUTEN5U0,37AQKJ12TXUZU2HNQQODGRRCUFVTTU,2,,160,2239,2kFemale/F886,2kFemale/F187,0,2,2kFemale/F886,2kFemale/F334,2kFemale/F187
2,3F6KKYWMNC7W5KEZX77OR8YIMJQDN9,A1HFM4HUTEN5U0,37AQKJ12TXUZU2HNQQODGRRCUFVTTU,2,,161,2973,2kFemale/F243,2kFemale/F716,2,1,2kFemale/F214,2kFemale/F716,2kFemale/F243
2,3F6KKYWMNC7W5KEZX77OR8YIMJQDN9,A1HFM4HUTEN5U0,37AQKJ12TXUZU2HNQQODGRRCUFVTTU,2,,162,2385,2kFemale/F762,2kFemale/F411,1,2,2kFemale/F248,2kFemale/F762,2kFemale/F411
2,3F6KKYWMNC7W5KEZX77OR8YIMJQDN9,A1HFM4HUTEN5U0,37AQKJ12TXUZU2HNQQODGRRCUFVTTU,2,,163,4852,2kFemale/F673,2kFemale/F164,1,0,2kFemale/F164,2kFemale/F673,2kFemale/F31
2,3F6KKYWMNC7W5KEZX77OR8YIMJQDN9,A1HFM4HUTEN5U0,37AQKJ12TXUZU2HNQQODGRRCUFVTTU,2,,164,8469,2kFemale/F624,2kFemale/F657,0,1,2kFemale/F624,2kFemale/F657,2kFemale/F712
2,3F6KKYWMNC7W5KEZX77OR8YIMJQDN9,A1HFM4HUTEN5U0,37AQKJ12TXUZU2HNQQODGRRCUFVTTU,2,,165,3363,2kFemale/F243,2kFemale/F232,0,2,2kFemale/F243,2kFemale/F776,2kFemale/F232
2,3F6KKYWMNC7W5KEZX77OR8YIMJQDN9,A1HFM4HUTEN5U0,37AQKJ12TXUZU2HNQQODGRRCUFVTTU,2,,166,2516,2kFemale/F264,2kFemale/F648,0,1,2kFemale/F264,2kFemale/F648,2kFemale/F623
2,3F6KKYWMNC7W5KEZX77OR8YIMJQDN9,A1HFM4HUTEN5U0,37AQKJ12TXUZU2HNQQODGRRCUFVTTU,2,,167,3131,2kFemale/F521,2kFemale/F132,1,2,2kFemale/F915,2kFemale/F521,2kFemale/F132
2,3F6KKYWMNC7W5KEZX77OR8YIMJQDN9,A1HFM4HUTEN5U0,37AQKJ12TXUZU2HNQQODGRRCUFVTTU,2,,168,2009,2kFemale/F551,2kFemale/F697,2,0,2kFemale/F697,2kFemale/F466,2kFemale/F551
2,3F6KKYWMNC7W5KEZX77OR8YIMJQDN9,A1HFM4HUTEN5U0,37AQKJ12TXUZU2HNQQODGRRCUFVTTU,2,,169,28500,2kFemale/F176,2kFemale/F410,2,1,2kFemale/F880,2kFemale/F410,2kFemale/F176
2,3F6KKYWMNC7W5KEZX77OR8YIMJQDN9,A1HFM4HUTEN5U0,37AQKJ12TXUZU2HNQQODGRRCUFVTTU,2,,170,3766,2kFemale/F166,2kFemale/F791,0,2,2kFemale/F166,2kFemale/F373,2kFemale/F791
2,3F6KKYWMNC7W5KEZX77OR8YIMJQDN9,A1HFM4HUTEN5U0,37AQKJ12TXUZU2HNQQODGRRCUFVTTU,2,,171,4009,2kFemale/F93,2kFemale/F778,0,2,2kFemale/F93,2kFemale/F779,2kFemale/F778
2,3F6KKYWMNC7W5KEZX77OR8YIMJQDN9,A1HFM4HUTEN5U0,37AQKJ12TXUZU2HNQQODGRRCUFVTTU,2,,172,3080,2kFemale/F102,2kFemale/F622,1,2,2kFemale/F688,2kFemale/F102,2kFemale/F622
2,3F6KKYWMNC7W5KEZX77OR8YIMJQDN9,A1HFM4HUTEN5U0,37AQKJ12TXUZU2HNQQODGRRCUFVTTU,2,,173,1858,2kFemale/F869,2kFemale/F36,2,0,2kFemale/F36,2kFemale/F843,2kFemale/F869
2,3F6KKYWMNC7W5KEZX77OR8YIMJQDN9,A1HFM4HUTEN5U0,37AQKJ12TXUZU2HNQQODGRRCUFVTTU,2,,174,1794,2kFemale/F229,2kFemale/F175,1,0,2kFemale/F175,2kFemale/F229,2kFemale/F844
2,3F6KKYWMNC7W5KEZX77OR8YIMJQDN9,A1HFM4HUTEN5U0,37AQKJ12TXUZU2HNQQODGRRCUFVTTU,2,,175,1842,2kFemale/F216,2kFemale/F186,1,0,2kFemale/F186,2kFemale/F216,2kFemale/F163
2,3F6KKYWMNC7W5KEZX77OR8YIMJQDN9,A1HFM4HUTEN5U0,37AQKJ12TXUZU2HNQQODGRRCUFVTTU,2,,176,1788,2kFemale/F351,2kFemale/F595,1,2,2kFemale/F175,2kFemale/F351,2kFemale/F595
2,3F6KKYWMNC7W5KEZX77OR8YIMJQDN9,A1HFM4HUTEN5U0,37AQKJ12TXUZU2HNQQODGRRCUFVTTU,2,,177,3184,2kFemale/F681,2kFemale/F471,2,0,2kFemale/F471,2kFemale/F742,2kFemale/F681
2,3F6KKYWMNC7W5KEZX77OR8YIMJQDN9,A1HFM4HUTEN5U0,37AQKJ12TXUZU2HNQQODGRRCUFVTTU,2,,178,3041,2kFemale/F412,2kFemale/F763,2,0,2kFemale/F763,2kFemale/F433,2kFemale/F412
2,3F6KKYWMNC7W5KEZX77OR8YIMJQDN9,A1HFM4HUTEN5U0,37AQKJ12TXUZU2HNQQODGRRCUFVTTU,2,,179,2067,2kFemale/F282,2kFemale/F521,2,1,2kFemale/F430,2kFemale/F521,2kFemale/F282
2,3F6KKYWMNC7W5KEZX77OR8YIMJQDN9,A1HFM4HUTEN5U0,37AQKJ12TXUZU2HNQQODGRRCUFVTTU,2,,180,1916,2kFemale/F69,2kFemale/F497,1,2,2kFemale/F41,2kFemale/F69,2kFemale/F497
2,3F6KKYWMNC7W5KEZX77OR8YIMJQDN9,A1HFM4HUTEN5U0,37AQKJ12TXUZU2HNQQODGRRCUFVTTU,2,,181,3067,2kFemale/F679,2kFemale/F476,1,2,2kFemale/F933,2kFemale/F679,2kFemale/F476
2,3F6KKYWMNC7W5KEZX77OR8YIMJQDN9,A1HFM4HUTEN5U0,37AQKJ12TXUZU2HNQQODGRRCUFVTTU,2,,182,4479,2kFemale/F296,2kFemale/F217,2,0,2kFemale/F217,2kFemale/F415,2kFemale/F296
2,3F6KKYWMNC7W5KEZX77OR8YIMJQDN9,A1HFM4HUTEN5U0,37AQKJ12TXUZU2HNQQODGRRCUFVTTU,2,,183,2200,2kFemale/F28,2kFemale/F884,1,2,2kFemale/F764,2kFemale/F28,2kFemale/F884
2,3F6KKYWMNC7W5KEZX77OR8YIMJQDN9,A1HFM4HUTEN5U0,37AQKJ12TXUZU2HNQQODGRRCUFVTTU,2,,184,4601,2kFemale/F710,2kFemale/F457,0,2,2kFemale/F710,2kFemale/F477,2kFemale/F457
2,3F6KKYWMNC7W5KEZX77OR8YIMJQDN9,A1HFM4HUTEN5U0,37AQKJ12TXUZU2HNQQODGRRCUFVTTU,2,,185,2471,2kFemale/F404,2kFemale/F283,2,0,2kFemale/F283,2kFemale/F304,2kFemale/F404
2,3F6KKYWMNC7W5KEZX77OR8YIMJQDN9,A1HFM4HUTEN5U0,37AQKJ12TXUZU2HNQQODGRRCUFVTTU,2,,186,2950,2kFemale/F212,2kFemale/F112,1,2,2kFemale/F678,2kFemale/F212,2kFemale/F112
2,3F6KKYWMNC7W5KEZX77OR8YIMJQDN9,A1HFM4HUTEN5U0,37AQKJ12TXUZU2HNQQODGRRCUFVTTU,2,,187,2854,2kFemale/F30,2kFemale/F666,2,0,2kFemale/F666,2kFemale/F189,2kFemale/F30
2,3F6KKYWMNC7W5KEZX77OR8YIMJQDN9,A1HFM4HUTEN5U0,37AQKJ12TXUZU2HNQQODGRRCUFVTTU,2,,188,2765,2kFemale/F106,2kFemale/F389,0,2,2kFemale/F106,2kFemale/F246,2kFemale/F389
2,3F6KKYWMNC7W5KEZX77OR8YIMJQDN9,A1HFM4HUTEN5U0,37AQKJ12TXUZU2HNQQODGRRCUFVTTU,2,,189,4287,2kFemale/F143,2kFemale/F689,1,0,2kFemale/F689,2kFemale/F143,2kFemale/F628
2,3F6KKYWMNC7W5KEZX77OR8YIMJQDN9,A1HFM4HUTEN5U0,37AQKJ12TXUZU2HNQQODGRRCUFVTTU,2,,190,2040,2kFemale/F648,2kFemale/F130,1,2,2kFemale/F320,2kFemale/F648,2kFemale/F130
2,3F6KKYWMNC7W5KEZX77OR8YIMJQDN9,A1HFM4HUTEN5U0,37AQKJ12TXUZU2HNQQODGRRCUFVTTU,2,,191,4633,2kFemale/F127,2kFemale/F787,2,0,2kFemale/F787,2kFemale/F80,2kFemale/F127
2,3F6KKYWMNC7W5KEZX77OR8YIMJQDN9,A1HFM4HUTEN5U0,37AQKJ12TXUZU2HNQQODGRRCUFVTTU,2,,192,4378,2kFemale/F574,2kFemale/F250,2,1,2kFemale/F567,2kFemale/F250,2kFemale/F574
2,3F6KKYWMNC7W5KEZX77OR8YIMJQDN9,A1HFM4HUTEN5U0,37AQKJ12TXUZU2HNQQODGRRCUFVTTU,2,,193,3562,2kFemale/F220,2kFemale/F803,1,2,2kFemale/F449,2kFemale/F220,2kFemale/F803
2,3F6KKYWMNC7W5KEZX77OR8YIMJQDN9,A1HFM4HUTEN5U0,37AQKJ12TXUZU2HNQQODGRRCUFVTTU,2,,194,4835,2kFemale/F618,2kFemale/F495,2,0,2kFemale/F495,2kFemale/F927,2kFemale/F618
2,3F6KKYWMNC7W5KEZX77OR8YIMJQDN9,A1HFM4HUTEN5U0,37AQKJ12TXUZU2HNQQODGRRCUFVTTU,2,,195,4135,2kFemale/F863,2kFemale/F581,0,1,2kFemale/F863,2kFemale/F581,2kFemale/F588
2,3F6KKYWMNC7W5KEZX77OR8YIMJQDN9,A1HFM4HUTEN5U0,37AQKJ12TXUZU2HNQQODGRRCUFVTTU,2,,196,3594,2kFemale/F744,2kFemale/F884,0,2,2kFemale/F744,2kFemale/F78,2kFemale/F884
2,3F6KKYWMNC7W5KEZX77OR8YIMJQDN9,A1HFM4HUTEN5U0,37AQKJ12TXUZU2HNQQODGRRCUFVTTU,2,,197,2713,2kFemale/F849,2kFemale/F318,1,2,2kFemale/F862,2kFemale/F849,2kFemale/F318
2,3F6KKYWMNC7W5KEZX77OR8YIMJQDN9,A1HFM4HUTEN5U0,37AQKJ12TXUZU2HNQQODGRRCUFVTTU,2,,198,2192,2kFemale/F418,2kFemale/F863,2,0,2kFemale/F863,2kFemale/F933,2kFemale/F418
2,3F6KKYWMNC7W5KEZX77OR8YIMJQDN9,A1HFM4HUTEN5U0,37AQKJ12TXUZU2HNQQODGRRCUFVTTU,2,,199,2564,2kFemale/F820,2kFemale/F767,0,1,2kFemale/F820,2kFemale/F767,2kFemale/F549
2,3F6KKYWMNC7W5KEZX77OR8YIMJQDN9,A1HFM4HUTEN5U0,37AQKJ12TXUZU2HNQQODGRRCUFVTTU,2,,200,2429,2kFemale/F595,2kFemale/F646,1,2,2kFemale/F466,2kFemale/F595,2kFemale/F646
2,3F6KKYWMNC7W5KEZX77OR8YIMJQDN9,A1HFM4HUTEN5U0,37AQKJ12TXUZU2HNQQODGRRCUFVTTU,2,,201,2247,2kFemale/F835,2kFemale/F592,0,2,2kFemale/F835,2kFemale/F524,2kFemale/F592
2,3F6KKYWMNC7W5KEZX77OR8YIMJQDN9,A1HFM4HUTEN5U0,37AQKJ12TXUZU2HNQQODGRRCUFVTTU,2,,202,3413,2kFemale/F58,2kFemale/F380,1,2,2kFemale/F766,2kFemale/F58,2kFemale/F380
2,3F6KKYWMNC7W5KEZX77OR8YIMJQDN9,A1HFM4HUTEN5U0,37AQKJ12TXUZU2HNQQODGRRCUFVTTU,2,,203,2920,2kFemale/F28,2kFemale/F160,0,2,2kFemale/F28,2kFemale/F467,2kFemale/F160
2,3F6KKYWMNC7W5KEZX77OR8YIMJQDN9,A1HFM4HUTEN5U0,37AQKJ12TXUZU2HNQQODGRRCUFVTTU,2,,204,1778,2kFemale/F619,2kFemale/F617,0,2,2kFemale/F619,2kFemale/F697,2kFemale/F617
2,3F6KKYWMNC7W5KEZX77OR8YIMJQDN9,A1HFM4HUTEN5U0,37AQKJ12TXUZU2HNQQODGRRCUFVTTU,2,,205,3438,2kFemale/F710,2kFemale/F180,0,1,2kFemale/F710,2kFemale/F180,2kFemale/F654
2,3F6KKYWMNC7W5KEZX77OR8YIMJQDN9,A1HFM4HUTEN5U0,37AQKJ12TXUZU2HNQQODGRRCUFVTTU,2,,206,4254,2kFemale/F615,2kFemale/F772,0,2,2kFemale/F615,2kFemale/F361,2kFemale/F772
2,3F6KKYWMNC7W5KEZX77OR8YIMJQDN9,A1HFM4HUTEN5U0,37AQKJ12TXUZU2HNQQODGRRCUFVTTU,3,,207,2124,2kFemale/F764,2kFemale/F764,true,true,2kFemale/F28,2kFemale/F764,2kFemale/F764
2,3F6KKYWMNC7W5KEZX77OR8YIMJQDN9,A1HFM4HUTEN5U0,37AQKJ12TXUZU2HNQQODGRRCUFVTTU,2,,208,2611,2kFemale/F57,2kFemale/F649,1,2,2kFemale/F449,2kFemale/F57,2kFemale/F649
2,3F6KKYWMNC7W5KEZX77OR8YIMJQDN9,A1HFM4HUTEN5U0,37AQKJ12TXUZU2HNQQODGRRCUFVTTU,2,,209,2342,2kFemale/F508,2kFemale/F893,0,2,2kFemale/F508,2kFemale/F334,2kFemale/F893
2,3F6KKYWMNC7W5KEZX77OR8YIMJQDN9,A1HFM4HUTEN5U0,37AQKJ12TXUZU2HNQQODGRRCUFVTTU,2,,210,2295,2kFemale/F487,2kFemale/F756,0,2,2kFemale/F487,2kFemale/F779,2kFemale/F756
2,3F6KKYWMNC7W5KEZX77OR8YIMJQDN9,A1HFM4HUTEN5U0,37AQKJ12TXUZU2HNQQODGRRCUFVTTU,2,,211,2313,2kFemale/F484,2kFemale/F82,0,1,2kFemale/F484,2kFemale/F82,2kFemale/F250
2,3F6KKYWMNC7W5KEZX77OR8YIMJQDN9,A1HFM4HUTEN5U0,37AQKJ12TXUZU2HNQQODGRRCUFVTTU,2,,212,2385,2kFemale/F759,2kFemale/F250,0,2,2kFemale/F759,2kFemale/F94,2kFemale/F250
2,3F6KKYWMNC7W5KEZX77OR8YIMJQDN9,A1HFM4HUTEN5U0,37AQKJ12TXUZU2HNQQODGRRCUFVTTU,2,,213,2352,2kFemale/F287,2kFemale/F560,2,0,2kFemale/F560,2kFemale/F198,2kFemale/F287
2,3F6KKYWMNC7W5KEZX77OR8YIMJQDN9,A1HFM4HUTEN5U0,37AQKJ12TXUZU2HNQQODGRRCUFVTTU,2,,214,2143,2kFemale/F940,2kFemale/F377,2,0,2kFemale/F377,2kFemale/F350,2kFemale/F940
2,3F6KKYWMNC7W5KEZX77OR8YIMJQDN9,A1HFM4HUTEN5U0,37AQKJ12TXUZU2HNQQODGRRCUFVTTU,2,,215,2981,2kFemale/F227,2kFemale/F437,0,1,2kFemale/F227,2kFemale/F437,2kFemale/F916
2,3F6KKYWMNC7W5KEZX77OR8YIMJQDN9,A1HFM4HUTEN5U0,37AQKJ12TXUZU2HNQQODGRRCUFVTTU,2,,216,3187,2kFemale/F426,2kFemale/F484,0,2,2kFemale/F426,2kFemale/F292,2kFemale/F484
2,3F6KKYWMNC7W5KEZX77OR8YIMJQDN9,A1HFM4HUTEN5U0,37AQKJ12TXUZU2HNQQODGRRCUFVTTU,2,,217,2201,2kFemale/F522,2kFemale/F497,0,1,2kFemale/F522,2kFemale/F497,2kFemale/F221
2,3F6KKYWMNC7W5KEZX77OR8YIMJQDN9,A1HFM4HUTEN5U0,37AQKJ12TXUZU2HNQQODGRRCUFVTTU,2,,218,1838,2kFemale/F740,2kFemale/F464,0,1,2kFemale/F740,2kFemale/F464,2kFemale/F415
3,3DOCMVPBTOK5RW5CM1LRNDAC0MRNNY,ADIIRT3CODKPW,37AQKJ12TXUZU2HNQQODGRRCUFVTTU,1,,5,14913,2kFemale/F18,2kFemale/F19,0,1,2kFemale/F18,2kFemale/F19,2kFemale/F16
3,3DOCMVPBTOK5RW5CM1LRNDAC0MRNNY,ADIIRT3CODKPW,37AQKJ12TXUZU2HNQQODGRRCUFVTTU,1,,11,20344,2kFemale/F18,2kFemale/F17,0,2,2kFemale/F18,2kFemale/F10,2kFemale/F17
3,3DOCMVPBTOK5RW5CM1LRNDAC0MRNNY,ADIIRT3CODKPW,37AQKJ12TXUZU2HNQQODGRRCUFVTTU,1,,12,10195,2kFemale/F12,2kFemale/F20,1,2,2kFemale/F16,2kFemale/F12,2kFemale/F20
3,3DOCMVPBTOK5RW5CM1LRNDAC0MRNNY,ADIIRT3CODKPW,37AQKJ12TXUZU2HNQQODGRRCUFVTTU,2,,14,20471,2kFemale/F915,2kFemale/F325,0,1,2kFemale/F915,2kFemale/F325,2kFemale/F557
3,3DOCMVPBTOK5RW5CM1LRNDAC0MRNNY,ADIIRT3CODKPW,37AQKJ12TXUZU2HNQQODGRRCUFVTTU,2,,15,8396,2kFemale/F102,2kFemale/F915,1,2,2kFemale/F422,2kFemale/F102,2kFemale/F915
3,3DOCMVPBTOK5RW5CM1LRNDAC0MRNNY,ADIIRT3CODKPW,37AQKJ12TXUZU2HNQQODGRRCUFVTTU,2,,16,5383,2kFemale/F874,2kFemale/F272,1,2,2kFemale/F524,2kFemale/F874,2kFemale/F272
3,3DOCMVPBTOK5RW5CM1LRNDAC0MRNNY,ADIIRT3CODKPW,37AQKJ12TXUZU2HNQQODGRRCUFVTTU,2,,17,8379,2kFemale/F251,2kFemale/F174,2,1,2kFemale/F868,2kFemale/F174,2kFemale/F251
3,3DOCMVPBTOK5RW5CM1LRNDAC0MRNNY,ADIIRT3CODKPW,37AQKJ12TXUZU2HNQQODGRRCUFVTTU,2,,18,4430,2kFemale/F949,2kFemale/F75,1,2,2kFemale/F514,2kFemale/F949,2kFemale/F75
3,3DOCMVPBTOK5RW5CM1LRNDAC0MRNNY,ADIIRT3CODKPW,37AQKJ12TXUZU2HNQQODGRRCUFVTTU,2,,19,9388,2kFemale/F673,2kFemale/F31,1,2,2kFemale/F164,2kFemale/F673,2kFemale/F31
3,3DOCMVPBTOK5RW5CM1LRNDAC0MRNNY,ADIIRT3CODKPW,37AQKJ12TXUZU2HNQQODGRRCUFVTTU,2,,20,11878,2kFemale/F827,2kFemale/F130,2,1,2kFemale/F139,2kFemale/F130,2kFemale/F827
3,3DOCMVPBTOK5RW5CM1LRNDAC0MRNNY,ADIIRT3CODKPW,37AQKJ12TXUZU2HNQQODGRRCUFVTTU,2,,21,5843,2kFemale/F791,2kFemale/F557,1,2,2kFemale/F336,2kFemale/F791,2kFemale/F557
3,3DOCMVPBTOK5RW5CM1LRNDAC0MRNNY,ADIIRT3CODKPW,37AQKJ12TXUZU2HNQQODGRRCUFVTTU,2,,22,6972,2kFemale/F906,2kFemale/F33,0,1,2kFemale/F906,2kFemale/F33,2kFemale/F418
3,3DOCMVPBTOK5RW5CM1LRNDAC0MRNNY,ADIIRT3CODKPW,37AQKJ12TXUZU2HNQQODGRRCUFVTTU,2,,23,4044,2kFemale/F430,2kFemale/F218,0,2,2kFemale/F430,2kFemale/F80,2kFemale/F218
3,3DOCMVPBTOK5RW5CM1LRNDAC0MRNNY,ADIIRT3CODKPW,37AQKJ12TXUZU2HNQQODGRRCUFVTTU,2,,24,3961,2kFemale/F593,2kFemale/F334,1,2,2kFemale/F813,2kFemale/F593,2kFemale/F334
3,3DOCMVPBTOK5RW5CM1LRNDAC0MRNNY,ADIIRT3CODKPW,37AQKJ12TXUZU2HNQQODGRRCUFVTTU,2,,25,3355,2kFemale/F616,2kFemale/F718,0,2,2kFemale/F616,2kFemale/F676,2kFemale/F718
3,3DOCMVPBTOK5RW5CM1LRNDAC0MRNNY,ADIIRT3CODKPW,37AQKJ12TXUZU2HNQQODGRRCUFVTTU,3,,26,2285,2kFemale/F813,2kFemale/F813,true,true,2kFemale/F813,2kFemale/F593,2kFemale/F813
3,3DOCMVPBTOK5RW5CM1LRNDAC0MRNNY,ADIIRT3CODKPW,37AQKJ12TXUZU2HNQQODGRRCUFVTTU,2,,27,4497,2kFemale/F352,2kFemale/F743,0,2,2kFemale/F352,2kFemale/F106,2kFemale/F743
3,3DOCMVPBTOK5RW5CM1LRNDAC0MRNNY,ADIIRT3CODKPW,37AQKJ12TXUZU2HNQQODGRRCUFVTTU,2,,28,4418,2kFemale/F828,2kFemale/F81,0,1,2kFemale/F828,2kFemale/F81,2kFemale/F381
3,3DOCMVPBTOK5RW5CM1LRNDAC0MRNNY,ADIIRT3CODKPW,37AQKJ12TXUZU2HNQQODGRRCUFVTTU,2,,29,24372,2kFemale/F474,2kFemale/F155,2,0,2kFemale/F155,2kFemale/F114,2kFemale/F474
3,3DOCMVPBTOK5RW5CM1LRNDAC0MRNNY,ADIIRT3CODKPW,37AQKJ12TXUZU2HNQQODGRRCUFVTTU,2,,30,9701,2kFemale/F542,2kFemale/F542,http://52.23.229.132/2kFemale/F124.jpg,1,0,2kFemale/F124,2kFemale/F542,2kFemale/F447
3,3DOCMVPBTOK5RW5CM1LRNDAC0MRNNY,ADIIRT3CODKPW,37AQKJ12TXUZU2HNQQODGRRCUFVTTU,2,,31,2899,2kFemale/F886,2kFemale/F187,0,2,2kFemale/F886,2kFemale/F334,2kFemale/F187
3,3DOCMVPBTOK5RW5CM1LRNDAC0MRNNY,ADIIRT3CODKPW,37AQKJ12TXUZU2HNQQODGRRCUFVTTU,2,,32,6750,2kFemale/F229,2kFemale/F118,0,1,2kFemale/F229,2kFemale/F118,2kFemale/F175
3,3DOCMVPBTOK5RW5CM1LRNDAC0MRNNY,ADIIRT3CODKPW,37AQKJ12TXUZU2HNQQODGRRCUFVTTU,2,,33,3741,2kFemale/F912,2kFemale/F57,0,2,2kFemale/F912,2kFemale/F548,2kFemale/F57
3,3DOCMVPBTOK5RW5CM1LRNDAC0MRNNY,ADIIRT3CODKPW,37AQKJ12TXUZU2HNQQODGRRCUFVTTU,2,,34,3853,2kFemale/F742,2kFemale/F506,1,0,2kFemale/F506,2kFemale/F742,2kFemale/F889
3,3DOCMVPBTOK5RW5CM1LRNDAC0MRNNY,ADIIRT3CODKPW,37AQKJ12TXUZU2HNQQODGRRCUFVTTU,2,,35,12104,2kFemale/F521,2kFemale/F132,1,2,2kFemale/F915,2kFemale/F521,2kFemale/F132
3,3DOCMVPBTOK5RW5CM1LRNDAC0MRNNY,ADIIRT3CODKPW,37AQKJ12TXUZU2HNQQODGRRCUFVTTU,2,,36,4977,2kFemale/F848,2kFemale/F666,2,1,2kFemale/F483,2kFemale/F666,2kFemale/F848
3,3DOCMVPBTOK5RW5CM1LRNDAC0MRNNY,ADIIRT3CODKPW,37AQKJ12TXUZU2HNQQODGRRCUFVTTU,2,,37,6627,2kFemale/F738,2kFemale/F778,1,2,2kFemale/F5,2kFemale/F738,2kFemale/F778
3,3DOCMVPBTOK5RW5CM1LRNDAC0MRNNY,ADIIRT3CODKPW,37AQKJ12TXUZU2HNQQODGRRCUFVTTU,2,,38,8950,2kFemale/F503,2kFemale/F757,2,0,2kFemale/F757,2kFemale/F297,2kFemale/F503
3,3DOCMVPBTOK5RW5CM1LRNDAC0MRNNY,ADIIRT3CODKPW,37AQKJ12TXUZU2HNQQODGRRCUFVTTU,2,,39,7511,2kFemale/F657,2kFemale/F712,1,2,2kFemale/F624,2kFemale/F657,2kFemale/F712
3,3DOCMVPBTOK5RW5CM1LRNDAC0MRNNY,ADIIRT3CODKPW,37AQKJ12TXUZU2HNQQODGRRCUFVTTU,2,,40,7183,2kFemale/F716,2kFemale/F214,1,0,2kFemale/F214,2kFemale/F716,2kFemale/F243
3,3DOCMVPBTOK5RW5CM1LRNDAC0MRNNY,ADIIRT3CODKPW,37AQKJ12TXUZU2HNQQODGRRCUFVTTU,2,,41,4779,2kFemale/F861,2kFemale/F900,0,1,2kFemale/F861,2kFemale/F900,2kFemale/F467
3,3DOCMVPBTOK5RW5CM1LRNDAC0MRNNY,ADIIRT3CODKPW,37AQKJ12TXUZU2HNQQODGRRCUFVTTU,2,,42,14914,2kFemale/F155,2kFemale/F12,2,0,2kFemale/F12,2kFemale/F321,2kFemale/F155
3,3DOCMVPBTOK5RW5CM1LRNDAC0MRNNY,ADIIRT3CODKPW,37AQKJ12TXUZU2HNQQODGRRCUFVTTU,2,,43,5546,2kFemale/F709,2kFemale/F374,0,1,2kFemale/F709,2kFemale/F374,2kFemale/F624
3,3DOCMVPBTOK5RW5CM1LRNDAC0MRNNY,ADIIRT3CODKPW,37AQKJ12TXUZU2HNQQODGRRCUFVTTU,2,,44,3281,2kFemale/F146,2kFemale/F786,1,2,2kFemale/F871,2kFemale/F146,2kFemale/F786
3,3DOCMVPBTOK5RW5CM1LRNDAC0MRNNY,ADIIRT3CODKPW,37AQKJ12TXUZU2HNQQODGRRCUFVTTU,2,,45,2580,2kFemale/F73,2kFemale/F490,2,0,2kFemale/F490,2kFemale/F383,2kFemale/F73
3,3DOCMVPBTOK5RW5CM1LRNDAC0MRNNY,ADIIRT3CODKPW,37AQKJ12TXUZU2HNQQODGRRCUFVTTU,2,,46,6916,2kFemale/F718,2kFemale/F722,1,0,2kFemale/F722,2kFemale/F718,2kFemale/F362
3,3DOCMVPBTOK5RW5CM1LRNDAC0MRNNY,ADIIRT3CODKPW,37AQKJ12TXUZU2HNQQODGRRCUFVTTU,2,,47,5743,2kFemale/F240,2kFemale/F587,0,1,2kFemale/F240,2kFemale/F587,2kFemale/F451
3,3DOCMVPBTOK5RW5CM1LRNDAC0MRNNY,ADIIRT3CODKPW,37AQKJ12TXUZU2HNQQODGRRCUFVTTU,2,,48,3884,2kFemale/F73,2kFemale/F52,1,2,2kFemale/F542,2kFemale/F73,2kFemale/F52
3,3DOCMVPBTOK5RW5CM1LRNDAC0MRNNY,ADIIRT3CODKPW,37AQKJ12TXUZU2HNQQODGRRCUFVTTU,2,,49,6788,2kFemale/F302,2kFemale/F662,2,1,2kFemale/F785,2kFemale/F662,2kFemale/F302
3,3DOCMVPBTOK5RW5CM1LRNDAC0MRNNY,ADIIRT3CODKPW,37AQKJ12TXUZU2HNQQODGRRCUFVTTU,2,,50,5774,2kFemale/F337,2kFemale/F224,1,0,2kFemale/F224,2kFemale/F337,2kFemale/F781
3,3DOCMVPBTOK5RW5CM1LRNDAC0MRNNY,ADIIRT3CODKPW,37AQKJ12TXUZU2HNQQODGRRCUFVTTU,2,,51,3088,2kFemale/F364,2kFemale/F757,0,2,2kFemale/F364,2kFemale/F729,2kFemale/F757
3,3DOCMVPBTOK5RW5CM1LRNDAC0MRNNY,ADIIRT3CODKPW,37AQKJ12TXUZU2HNQQODGRRCUFVTTU,2,,52,9070,2kFemale/F158,2kFemale/F574,0,1,2kFemale/F158,2kFemale/F574,2kFemale/F251
3,3DOCMVPBTOK5RW5CM1LRNDAC0MRNNY,ADIIRT3CODKPW,37AQKJ12TXUZU2HNQQODGRRCUFVTTU,2,,53,5864,2kFemale/F398,2kFemale/F229,1,0,2kFemale/F229,2kFemale/F398,2kFemale/F48
3,3DOCMVPBTOK5RW5CM1LRNDAC0MRNNY,ADIIRT3CODKPW,37AQKJ12TXUZU2HNQQODGRRCUFVTTU,2,,54,2857,2kFemale/F467,2kFemale/F856,0,2,2kFemale/F467,2kFemale/F322,2kFemale/F856
3,3DOCMVPBTOK5RW5CM1LRNDAC0MRNNY,ADIIRT3CODKPW,37AQKJ12TXUZU2HNQQODGRRCUFVTTU,2,,55,11159,2kFemale/F411,2kFemale/F762,2,1,2kFemale/F248,2kFemale/F762,2kFemale/F411
3,3DOCMVPBTOK5RW5CM1LRNDAC0MRNNY,ADIIRT3CODKPW,37AQKJ12TXUZU2HNQQODGRRCUFVTTU,2,,56,16953,2kFemale/F648,2kFemale/F623,1,2,2kFemale/F264,2kFemale/F648,2kFemale/F623
3,3DOCMVPBTOK5RW5CM1LRNDAC0MRNNY,ADIIRT3CODKPW,37AQKJ12TXUZU2HNQQODGRRCUFVTTU,2,,57,5902,2kFemale/F92,2kFemale/F126,0,1,2kFemale/F92,2kFemale/F126,2kFemale/F896
3,3DOCMVPBTOK5RW5CM1LRNDAC0MRNNY,ADIIRT3CODKPW,37AQKJ12TXUZU2HNQQODGRRCUFVTTU,2,,58,5661,2kFemale/F246,2kFemale/F800,1,2,2kFemale/F143,2kFemale/F246,2kFemale/F800
3,3DOCMVPBTOK5RW5CM1LRNDAC0MRNNY,ADIIRT3CODKPW,37AQKJ12TXUZU2HNQQODGRRCUFVTTU,2,,59,3774,2kFemale/F138,2kFemale/F553,2,0,2kFemale/F553,2kFemale/F524,2kFemale/F138
3,3DOCMVPBTOK5RW5CM1LRNDAC0MRNNY,ADIIRT3CODKPW,37AQKJ12TXUZU2HNQQODGRRCUFVTTU,2,,60,4190,2kFemale/F161,2kFemale/F41,2,1,2kFemale/F15,2kFemale/F41,2kFemale/F161
3,3DOCMVPBTOK5RW5CM1LRNDAC0MRNNY,ADIIRT3CODKPW,37AQKJ12TXUZU2HNQQODGRRCUFVTTU,2,,61,9499,2kFemale/F372,2kFemale/F385,0,2,2kFemale/F372,2kFemale/F231,2kFemale/F385
3,3DOCMVPBTOK5RW5CM1LRNDAC0MRNNY,ADIIRT3CODKPW,37AQKJ12TXUZU2HNQQODGRRCUFVTTU,2,,62,5182,2kFemale/F93,2kFemale/F264,2,0,2kFemale/F264,2kFemale/F44,2kFemale/F93
3,3DOCMVPBTOK5RW5CM1LRNDAC0MRNNY,ADIIRT3CODKPW,37AQKJ12TXUZU2HNQQODGRRCUFVTTU,2,,63,2748,2kFemale/F243,2kFemale/F232,0,2,2kFemale/F243,2kFemale/F776,2kFemale/F232
3,3DOCMVPBTOK5RW5CM1LRNDAC0MRNNY,ADIIRT3CODKPW,37AQKJ12TXUZU2HNQQODGRRCUFVTTU,2,,64,3254,2kFemale/F467,2kFemale/F179,1,0,2kFemale/F179,2kFemale/F467,2kFemale/F424
3,3DOCMVPBTOK5RW5CM1LRNDAC0MRNNY,ADIIRT3CODKPW,37AQKJ12TXUZU2HNQQODGRRCUFVTTU,2,,65,4959,2kFemale/F521,2kFemale/F430,1,0,2kFemale/F430,2kFemale/F521,2kFemale/F282
3,3DOCMVPBTOK5RW5CM1LRNDAC0MRNNY,ADIIRT3CODKPW,37AQKJ12TXUZU2HNQQODGRRCUFVTTU,2,,66,8052,2kFemale/F437,2kFemale/F437,http://52.23.229.132/2kFemale/F437.jpg,http://52.23.229.132/2kFemale/F916.jpg,1,2,2kFemale/F227,2kFemale/F437,2kFemale/F916
3,3DOCMVPBTOK5RW5CM1LRNDAC0MRNNY,ADIIRT3CODKPW,37AQKJ12TXUZU2HNQQODGRRCUFVTTU,2,,67,5546,2kFemale/F287,2kFemale/F560,2,0,2kFemale/F560,2kFemale/F198,2kFemale/F287
3,3DOCMVPBTOK5RW5CM1LRNDAC0MRNNY,ADIIRT3CODKPW,37AQKJ12TXUZU2HNQQODGRRCUFVTTU,2,,68,2514,2kFemale/F484,2kFemale/F82,0,1,2kFemale/F484,2kFemale/F82,2kFemale/F250
3,3DOCMVPBTOK5RW5CM1LRNDAC0MRNNY,ADIIRT3CODKPW,37AQKJ12TXUZU2HNQQODGRRCUFVTTU,2,,69,7287,2kFemale/F863,2kFemale/F581,0,1,2kFemale/F863,2kFemale/F581,2kFemale/F588
3,3DOCMVPBTOK5RW5CM1LRNDAC0MRNNY,ADIIRT3CODKPW,37AQKJ12TXUZU2HNQQODGRRCUFVTTU,2,,70,5971,2kFemale/F697,2kFemale/F551,0,2,2kFemale/F697,2kFemale/F466,2kFemale/F551
3,3DOCMVPBTOK5RW5CM1LRNDAC0MRNNY,ADIIRT3CODKPW,37AQKJ12TXUZU2HNQQODGRRCUFVTTU,2,,71,7276,2kFemale/F412,2kFemale/F412,http://52.23.229.132/2kFemale/F433.jpg,2,1,2kFemale/F763,2kFemale/F433,2kFemale/F412
3,3DOCMVPBTOK5RW5CM1LRNDAC0MRNNY,ADIIRT3CODKPW,37AQKJ12TXUZU2HNQQODGRRCUFVTTU,2,,72,4876,2kFemale/F522,2kFemale/F221,0,2,2kFemale/F522,2kFemale/F497,2kFemale/F221
3,3DOCMVPBTOK5RW5CM1LRNDAC0MRNNY,ADIIRT3CODKPW,37AQKJ12TXUZU2HNQQODGRRCUFVTTU,2,,73,4305,2kFemale/F160,2kFemale/F28,2,0,2kFemale/F28,2kFemale/F467,2kFemale/F160
3,3DOCMVPBTOK5RW5CM1LRNDAC0MRNNY,ADIIRT3CODKPW,37AQKJ12TXUZU2HNQQODGRRCUFVTTU,2,,74,4159,2kFemale/F759,2kFemale/F250,0,2,2kFemale/F759,2kFemale/F94,2kFemale/F250
3,3DOCMVPBTOK5RW5CM1LRNDAC0MRNNY,ADIIRT3CODKPW,37AQKJ12TXUZU2HNQQODGRRCUFVTTU,2,,75,3497,2kFemale/F617,2kFemale/F619,2,0,2kFemale/F619,2kFemale/F697,2kFemale/F617
3,3DOCMVPBTOK5RW5CM1LRNDAC0MRNNY,ADIIRT3CODKPW,37AQKJ12TXUZU2HNQQODGRRCUFVTTU,2,,76,7081,2kFemale/F862,2kFemale/F862,http://52.23.229.132/2kFemale/F849.jpg,0,1,2kFemale/F862,2kFemale/F849,2kFemale/F318
3,3DOCMVPBTOK5RW5CM1LRNDAC0MRNNY,ADIIRT3CODKPW,37AQKJ12TXUZU2HNQQODGRRCUFVTTU,2,,77,3308,2kFemale/F524,2kFemale/F592,1,2,2kFemale/F835,2kFemale/F524,2kFemale/F592
3,3DOCMVPBTOK5RW5CM1LRNDAC0MRNNY,ADIIRT3CODKPW,37AQKJ12TXUZU2HNQQODGRRCUFVTTU,2,,78,3089,2kFemale/F648,2kFemale/F130,1,2,2kFemale/F320,2kFemale/F648,2kFemale/F130
3,3DOCMVPBTOK5RW5CM1LRNDAC0MRNNY,ADIIRT3CODKPW,37AQKJ12TXUZU2HNQQODGRRCUFVTTU,2,,79,5230,2kFemale/F180,2kFemale/F180,http://52.23.229.132/2kFemale/F710.jpg,1,0,2kFemale/F710,2kFemale/F180,2kFemale/F654
3,3DOCMVPBTOK5RW5CM1LRNDAC0MRNNY,ADIIRT3CODKPW,37AQKJ12TXUZU2HNQQODGRRCUFVTTU,2,,80,3714,2kFemale/F595,2kFemale/F646,1,2,2kFemale/F466,2kFemale/F595,2kFemale/F646
3,3DOCMVPBTOK5RW5CM1LRNDAC0MRNNY,ADIIRT3CODKPW,37AQKJ12TXUZU2HNQQODGRRCUFVTTU,2,,81,4841,2kFemale/F803,2kFemale/F220,2,1,2kFemale/F449,2kFemale/F220,2kFemale/F803
3,3DOCMVPBTOK5RW5CM1LRNDAC0MRNNY,ADIIRT3CODKPW,37AQKJ12TXUZU2HNQQODGRRCUFVTTU,2,,82,4685,2kFemale/F688,2kFemale/F102,0,1,2kFemale/F688,2kFemale/F102,2kFemale/F622
3,3DOCMVPBTOK5RW5CM1LRNDAC0MRNNY,ADIIRT3CODKPW,37AQKJ12TXUZU2HNQQODGRRCUFVTTU,2,,83,12006,2kFemale/F787,2kFemale/F127,0,2,2kFemale/F787,2kFemale/F80,2kFemale/F127
3,3DOCMVPBTOK5RW5CM1LRNDAC0MRNNY,ADIIRT3CODKPW,37AQKJ12TXUZU2HNQQODGRRCUFVTTU,3,,84,2936,2kFemale/F710,2kFemale/F710,true,true,2kFemale/F477,2kFemale/F710,2kFemale/F710
3,3DOCMVPBTOK5RW5CM1LRNDAC0MRNNY,ADIIRT3CODKPW,37AQKJ12TXUZU2HNQQODGRRCUFVTTU,2,,85,4579,2kFemale/F143,2kFemale/F628,1,2,2kFemale/F689,2kFemale/F143,2kFemale/F628
3,3DOCMVPBTOK5RW5CM1LRNDAC0MRNNY,ADIIRT3CODKPW,37AQKJ12TXUZU2HNQQODGRRCUFVTTU,2,,86,6846,2kFemale/F351,2kFemale/F175,1,0,2kFemale/F175,2kFemale/F351,2kFemale/F595
3,3DOCMVPBTOK5RW5CM1LRNDAC0MRNNY,ADIIRT3CODKPW,37AQKJ12TXUZU2HNQQODGRRCUFVTTU,2,,87,4882,2kFemale/F880,2kFemale/F410,0,1,2kFemale/F880,2kFemale/F410,2kFemale/F176
3,3DOCMVPBTOK5RW5CM1LRNDAC0MRNNY,ADIIRT3CODKPW,37AQKJ12TXUZU2HNQQODGRRCUFVTTU,2,,88,4476,2kFemale/F933,2kFemale/F679,0,1,2kFemale/F933,2kFemale/F679,2kFemale/F476
3,3DOCMVPBTOK5RW5CM1LRNDAC0MRNNY,ADIIRT3CODKPW,37AQKJ12TXUZU2HNQQODGRRCUFVTTU,2,,89,2817,2kFemale/F106,2kFemale/F389,0,2,2kFemale/F106,2kFemale/F246,2kFemale/F389
3,3DOCMVPBTOK5RW5CM1LRNDAC0MRNNY,ADIIRT3CODKPW,37AQKJ12TXUZU2HNQQODGRRCUFVTTU,2,,90,7834,2kFemale/F666,2kFemale/F30,0,2,2kFemale/F666,2kFemale/F189,2kFemale/F30
3,3DOCMVPBTOK5RW5CM1LRNDAC0MRNNY,ADIIRT3CODKPW,37AQKJ12TXUZU2HNQQODGRRCUFVTTU,2,,91,7282,2kFemale/F377,2kFemale/F940,0,2,2kFemale/F377,2kFemale/F350,2kFemale/F940
3,3DOCMVPBTOK5RW5CM1LRNDAC0MRNNY,ADIIRT3CODKPW,37AQKJ12TXUZU2HNQQODGRRCUFVTTU,2,,92,6877,2kFemale/F112,2kFemale/F212,2,1,2kFemale/F678,2kFemale/F212,2kFemale/F112
3,3DOCMVPBTOK5RW5CM1LRNDAC0MRNNY,ADIIRT3CODKPW,37AQKJ12TXUZU2HNQQODGRRCUFVTTU,2,,93,4035,2kFemale/F477,2kFemale/F710,1,0,2kFemale/F710,2kFemale/F477,2kFemale/F457
3,3DOCMVPBTOK5RW5CM1LRNDAC0MRNNY,ADIIRT3CODKPW,37AQKJ12TXUZU2HNQQODGRRCUFVTTU,2,,94,4468,2kFemale/F495,2kFemale/F927,0,1,2kFemale/F495,2kFemale/F927,2kFemale/F618
3,3DOCMVPBTOK5RW5CM1LRNDAC0MRNNY,ADIIRT3CODKPW,37AQKJ12TXUZU2HNQQODGRRCUFVTTU,2,,95,6738,2kFemale/F292,2kFemale/F484,1,2,2kFemale/F426,2kFemale/F292,2kFemale/F484
3,3DOCMVPBTOK5RW5CM1LRNDAC0MRNNY,ADIIRT3CODKPW,37AQKJ12TXUZU2HNQQODGRRCUFVTTU,2,,96,3915,2kFemale/F69,2kFemale/F41,1,0,2kFemale/F41,2kFemale/F69,2kFemale/F497
3,3DOCMVPBTOK5RW5CM1LRNDAC0MRNNY,ADIIRT3CODKPW,37AQKJ12TXUZU2HNQQODGRRCUFVTTU,2,,97,3651,2kFemale/F175,2kFemale/F229,0,1,2kFemale/F175,2kFemale/F229,2kFemale/F844
3,3DOCMVPBTOK5RW5CM1LRNDAC0MRNNY,ADIIRT3CODKPW,37AQKJ12TXUZU2HNQQODGRRCUFVTTU,2,,98,6626,2kFemale/F186,2kFemale/F163,0,2,2kFemale/F186,2kFemale/F216,2kFemale/F163
3,3DOCMVPBTOK5RW5CM1LRNDAC0MRNNY,ADIIRT3CODKPW,37AQKJ12TXUZU2HNQQODGRRCUFVTTU,2,,99,6231,2kFemale/F574,2kFemale/F250,2,1,2kFemale/F567,2kFemale/F250,2kFemale/F574
3,3DOCMVPBTOK5RW5CM1LRNDAC0MRNNY,ADIIRT3CODKPW,37AQKJ12TXUZU2HNQQODGRRCUFVTTU,2,,100,10644,2kFemale/F28,2kFemale/F764,1,0,2kFemale/F764,2kFemale/F28,2kFemale/F884
3,3DOCMVPBTOK5RW5CM1LRNDAC0MRNNY,ADIIRT3CODKPW,37AQKJ12TXUZU2HNQQODGRRCUFVTTU,2,,101,3236,2kFemale/F615,2kFemale/F361,0,1,2kFemale/F615,2kFemale/F361,2kFemale/F772
3,3DOCMVPBTOK5RW5CM1LRNDAC0MRNNY,ADIIRT3CODKPW,37AQKJ12TXUZU2HNQQODGRRCUFVTTU,2,,102,6526,2kFemale/F58,2kFemale/F380,1,2,2kFemale/F766,2kFemale/F58,2kFemale/F380
3,3DOCMVPBTOK5RW5CM1LRNDAC0MRNNY,ADIIRT3CODKPW,37AQKJ12TXUZU2HNQQODGRRCUFVTTU,2,,103,3746,2kFemale/F487,2kFemale/F756,0,2,2kFemale/F487,2kFemale/F779,2kFemale/F756
3,3DOCMVPBTOK5RW5CM1LRNDAC0MRNNY,ADIIRT3CODKPW,37AQKJ12TXUZU2HNQQODGRRCUFVTTU,2,,104,3356,2kFemale/F418,2kFemale/F933,2,1,2kFemale/F863,2kFemale/F933,2kFemale/F418
3,3DOCMVPBTOK5RW5CM1LRNDAC0MRNNY,ADIIRT3CODKPW,37AQKJ12TXUZU2HNQQODGRRCUFVTTU,2,,105,3196,2kFemale/F843,2kFemale/F869,1,2,2kFemale/F36,2kFemale/F843,2kFemale/F869
3,3DOCMVPBTOK5RW5CM1LRNDAC0MRNNY,ADIIRT3CODKPW,37AQKJ12TXUZU2HNQQODGRRCUFVTTU,2,,106,2918,2kFemale/F373,2kFemale/F791,1,2,2kFemale/F166,2kFemale/F373,2kFemale/F791
3,3DOCMVPBTOK5RW5CM1LRNDAC0MRNNY,ADIIRT3CODKPW,37AQKJ12TXUZU2HNQQODGRRCUFVTTU,2,,107,6063,2kFemale/F449,2kFemale/F57,0,1,2kFemale/F449,2kFemale/F57,2kFemale/F649
3,3DOCMVPBTOK5RW5CM1LRNDAC0MRNNY,ADIIRT3CODKPW,37AQKJ12TXUZU2HNQQODGRRCUFVTTU,2,,108,3305,2kFemale/F820,2kFemale/F767,0,1,2kFemale/F820,2kFemale/F767,2kFemale/F549
3,3DOCMVPBTOK5RW5CM1LRNDAC0MRNNY,ADIIRT3CODKPW,37AQKJ12TXUZU2HNQQODGRRCUFVTTU,2,,109,4985,2kFemale/F304,2kFemale/F404,1,2,2kFemale/F283,2kFemale/F304,2kFemale/F404
3,3DOCMVPBTOK5RW5CM1LRNDAC0MRNNY,ADIIRT3CODKPW,37AQKJ12TXUZU2HNQQODGRRCUFVTTU,2,,110,4355,2kFemale/F778,2kFemale/F93,2,0,2kFemale/F93,2kFemale/F779,2kFemale/F778
3,3DOCMVPBTOK5RW5CM1LRNDAC0MRNNY,ADIIRT3CODKPW,37AQKJ12TXUZU2HNQQODGRRCUFVTTU,2,,111,3859,2kFemale/F893,2kFemale/F334,2,1,2kFemale/F508,2kFemale/F334,2kFemale/F893
3,3DOCMVPBTOK5RW5CM1LRNDAC0MRNNY,ADIIRT3CODKPW,37AQKJ12TXUZU2HNQQODGRRCUFVTTU,2,,112,3910,2kFemale/F464,2kFemale/F740,1,0,2kFemale/F740,2kFemale/F464,2kFemale/F415
3,3DOCMVPBTOK5RW5CM1LRNDAC0MRNNY,ADIIRT3CODKPW,37AQKJ12TXUZU2HNQQODGRRCUFVTTU,2,,113,3571,2kFemale/F744,2kFemale/F884,0,2,2kFemale/F744,2kFemale/F78,2kFemale/F884
3,3DOCMVPBTOK5RW5CM1LRNDAC0MRNNY,ADIIRT3CODKPW,37AQKJ12TXUZU2HNQQODGRRCUFVTTU,2,,114,3450,2kFemale/F217,2kFemale/F296,0,2,2kFemale/F217,2kFemale/F415,2kFemale/F296
3,3DOCMVPBTOK5RW5CM1LRNDAC0MRNNY,ADIIRT3CODKPW,37AQKJ12TXUZU2HNQQODGRRCUFVTTU,2,,115,6180,2kFemale/F471,2kFemale/F742,0,1,2kFemale/F471,2kFemale/F742,2kFemale/F681
3,3DOCMVPBTOK5RW5CM1LRNDAC0MRNNY,ADIIRT3CODKPW,37AQKJ12TXUZU2HNQQODGRRCUFVTTU,2,,117,4807,2kFemale/F92,2kFemale/F896,0,2,2kFemale/F92,2kFemale/F126,2kFemale/F896
3,3DOCMVPBTOK5RW5CM1LRNDAC0MRNNY,ADIIRT3CODKPW,37AQKJ12TXUZU2HNQQODGRRCUFVTTU,2,,118,4233,2kFemale/F175,2kFemale/F118,2,1,2kFemale/F229,2kFemale/F118,2kFemale/F175
3,3DOCMVPBTOK5RW5CM1LRNDAC0MRNNY,ADIIRT3CODKPW,37AQKJ12TXUZU2HNQQODGRRCUFVTTU,2,,119,3097,2kFemale/F718,2kFemale/F722,1,0,2kFemale/F722,2kFemale/F718,2kFemale/F362
3,3DOCMVPBTOK5RW5CM1LRNDAC0MRNNY,ADIIRT3CODKPW,37AQKJ12TXUZU2HNQQODGRRCUFVTTU,2,,120,4076,2kFemale/F506,2kFemale/F889,0,2,2kFemale/F506,2kFemale/F742,2kFemale/F889
3,3DOCMVPBTOK5RW5CM1LRNDAC0MRNNY,ADIIRT3CODKPW,37AQKJ12TXUZU2HNQQODGRRCUFVTTU,2,,121,2866,2kFemale/F130,2kFemale/F139,1,0,2kFemale/F139,2kFemale/F130,2kFemale/F827
3,3DOCMVPBTOK5RW5CM1LRNDAC0MRNNY,ADIIRT3CODKPW,37AQKJ12TXUZU2HNQQODGRRCUFVTTU,2,,122,3014,2kFemale/F264,2kFemale/F93,0,2,2kFemale/F264,2kFemale/F44,2kFemale/F93
3,3DOCMVPBTOK5RW5CM1LRNDAC0MRNNY,ADIIRT3CODKPW,37AQKJ12TXUZU2HNQQODGRRCUFVTTU,2,,123,3708,2kFemale/F430,2kFemale/F80,0,1,2kFemale/F430,2kFemale/F80,2kFemale/F218
3,3DOCMVPBTOK5RW5CM1LRNDAC0MRNNY,ADIIRT3CODKPW,37AQKJ12TXUZU2HNQQODGRRCUFVTTU,2,,124,13873,2kFemale/F75,2kFemale/F949,2,1,2kFemale/F514,2kFemale/F949,2kFemale/F75
3,3DOCMVPBTOK5RW5CM1LRNDAC0MRNNY,ADIIRT3CODKPW,37AQKJ12TXUZU2HNQQODGRRCUFVTTU,2,,125,3063,2kFemale/F337,2kFemale/F224,1,0,2kFemale/F224,2kFemale/F337,2kFemale/F781
3,3DOCMVPBTOK5RW5CM1LRNDAC0MRNNY,ADIIRT3CODKPW,37AQKJ12TXUZU2HNQQODGRRCUFVTTU,2,,126,2833,2kFemale/F490,2kFemale/F73,0,2,2kFemale/F490,2kFemale/F383,2kFemale/F73
3,3DOCMVPBTOK5RW5CM1LRNDAC0MRNNY,ADIIRT3CODKPW,37AQKJ12TXUZU2HNQQODGRRCUFVTTU,2,,127,9124,2kFemale/F503,2kFemale/F757,2,0,2kFemale/F757,2kFemale/F297,2kFemale/F503
3,3DOCMVPBTOK5RW5CM1LRNDAC0MRNNY,ADIIRT3CODKPW,37AQKJ12TXUZU2HNQQODGRRCUFVTTU,2,,128,4666,2kFemale/F41,2kFemale/F15,1,0,2kFemale/F15,2kFemale/F41,2kFemale/F161
3,3DOCMVPBTOK5RW5CM1LRNDAC0MRNNY,ADIIRT3CODKPW,37AQKJ12TXUZU2HNQQODGRRCUFVTTU,2,,129,2514,2kFemale/F179,2kFemale/F467,0,1,2kFemale/F179,2kFemale/F467,2kFemale/F424
3,3DOCMVPBTOK5RW5CM1LRNDAC0MRNNY,ADIIRT3CODKPW,37AQKJ12TXUZU2HNQQODGRRCUFVTTU,2,,130,4219,2kFemale/F155,2kFemale/F474,0,2,2kFemale/F155,2kFemale/F114,2kFemale/F474
3,3DOCMVPBTOK5RW5CM1LRNDAC0MRNNY,ADIIRT3CODKPW,37AQKJ12TXUZU2HNQQODGRRCUFVTTU,2,,131,3853,2kFemale/F828,2kFemale/F81,0,1,2kFemale/F828,2kFemale/F81,2kFemale/F381
3,3DOCMVPBTOK5RW5CM1LRNDAC0MRNNY,ADIIRT3CODKPW,37AQKJ12TXUZU2HNQQODGRRCUFVTTU,2,,132,7717,2kFemale/F322,2kFemale/F856,1,2,2kFemale/F467,2kFemale/F322,2kFemale/F856
3,3DOCMVPBTOK5RW5CM1LRNDAC0MRNNY,ADIIRT3CODKPW,37AQKJ12TXUZU2HNQQODGRRCUFVTTU,2,,133,4396,2kFemale/F716,2kFemale/F214,1,0,2kFemale/F214,2kFemale/F716,2kFemale/F243
3,3DOCMVPBTOK5RW5CM1LRNDAC0MRNNY,ADIIRT3CODKPW,37AQKJ12TXUZU2HNQQODGRRCUFVTTU,2,,134,5037,2kFemale/F616,2kFemale/F676,0,1,2kFemale/F616,2kFemale/F676,2kFemale/F718
3,3DOCMVPBTOK5RW5CM1LRNDAC0MRNNY,ADIIRT3CODKPW,37AQKJ12TXUZU2HNQQODGRRCUFVTTU,2,,135,3684,2kFemale/F102,2kFemale/F915,1,2,2kFemale/F422,2kFemale/F102,2kFemale/F915
3,3DOCMVPBTOK5RW5CM1LRNDAC0MRNNY,ADIIRT3CODKPW,37AQKJ12TXUZU2HNQQODGRRCUFVTTU,2,,136,5560,2kFemale/F786,2kFemale/F146,2,1,2kFemale/F871,2kFemale/F146,2kFemale/F786
3,3DOCMVPBTOK5RW5CM1LRNDAC0MRNNY,ADIIRT3CODKPW,37AQKJ12TXUZU2HNQQODGRRCUFVTTU,2,,137,2783,2kFemale/F743,2kFemale/F352,2,0,2kFemale/F352,2kFemale/F106,2kFemale/F743
3,3DOCMVPBTOK5RW5CM1LRNDAC0MRNNY,ADIIRT3CODKPW,37AQKJ12TXUZU2HNQQODGRRCUFVTTU,2,,138,8818,2kFemale/F229,2kFemale/F48,0,2,2kFemale/F229,2kFemale/F398,2kFemale/F48
3,3DOCMVPBTOK5RW5CM1LRNDAC0MRNNY,ADIIRT3CODKPW,37AQKJ12TXUZU2HNQQODGRRCUFVTTU,2,,139,5958,2kFemale/F451,2kFemale/F240,2,0,2kFemale/F240,2kFemale/F587,2kFemale/F451
3,3DOCMVPBTOK5RW5CM1LRNDAC0MRNNY,ADIIRT3CODKPW,37AQKJ12TXUZU2HNQQODGRRCUFVTTU,2,,140,8317,2kFemale/F5,2kFemale/F778,0,2,2kFemale/F5,2kFemale/F738,2kFemale/F778
3,3DOCMVPBTOK5RW5CM1LRNDAC0MRNNY,ADIIRT3CODKPW,37AQKJ12TXUZU2HNQQODGRRCUFVTTU,2,,141,7803,2kFemale/F143,2kFemale/F246,0,1,2kFemale/F143,2kFemale/F246,2kFemale/F800
3,3DOCMVPBTOK5RW5CM1LRNDAC0MRNNY,ADIIRT3CODKPW,37AQKJ12TXUZU2HNQQODGRRCUFVTTU,3,,142,2024,2kFemale/F813,2kFemale/F813,true,true,2kFemale/F813,2kFemale/F593,2kFemale/F813
3,3DOCMVPBTOK5RW5CM1LRNDAC0MRNNY,ADIIRT3CODKPW,37AQKJ12TXUZU2HNQQODGRRCUFVTTU,2,,143,4720,2kFemale/F666,2kFemale/F848,1,2,2kFemale/F483,2kFemale/F666,2kFemale/F848
3,3DOCMVPBTOK5RW5CM1LRNDAC0MRNNY,ADIIRT3CODKPW,37AQKJ12TXUZU2HNQQODGRRCUFVTTU,2,,144,9814,2kFemale/F138,2kFemale/F553,2,0,2kFemale/F553,2kFemale/F524,2kFemale/F138
3,3DOCMVPBTOK5RW5CM1LRNDAC0MRNNY,ADIIRT3CODKPW,37AQKJ12TXUZU2HNQQODGRRCUFVTTU,2,,145,5136,2kFemale/F593,2kFemale/F334,1,2,2kFemale/F813,2kFemale/F593,2kFemale/F334
3,3DOCMVPBTOK5RW5CM1LRNDAC0MRNNY,ADIIRT3CODKPW,37AQKJ12TXUZU2HNQQODGRRCUFVTTU,2,,146,7766,2kFemale/F272,2kFemale/F524,2,0,2kFemale/F524,2kFemale/F874,2kFemale/F272
3,3DOCMVPBTOK5RW5CM1LRNDAC0MRNNY,ADIIRT3CODKPW,37AQKJ12TXUZU2HNQQODGRRCUFVTTU,2,,147,2959,2kFemale/F886,2kFemale/F334,0,1,2kFemale/F886,2kFemale/F334,2kFemale/F187
3,3DOCMVPBTOK5RW5CM1LRNDAC0MRNNY,ADIIRT3CODKPW,37AQKJ12TXUZU2HNQQODGRRCUFVTTU,2,,148,4315,2kFemale/F325,2kFemale/F557,1,2,2kFemale/F915,2kFemale/F325,2kFemale/F557
3,3DOCMVPBTOK5RW5CM1LRNDAC0MRNNY,ADIIRT3CODKPW,37AQKJ12TXUZU2HNQQODGRRCUFVTTU,2,,149,6359,2kFemale/F232,2kFemale/F232,http://52.23.229.132/2kFemale/F243.jpg,2,0,2kFemale/F243,2kFemale/F776,2kFemale/F232
3,3DOCMVPBTOK5RW5CM1LRNDAC0MRNNY,ADIIRT3CODKPW,37AQKJ12TXUZU2HNQQODGRRCUFVTTU,2,,150,5309,2kFemale/F73,2kFemale/F52,1,2,2kFemale/F542,2kFemale/F73,2kFemale/F52
3,3DOCMVPBTOK5RW5CM1LRNDAC0MRNNY,ADIIRT3CODKPW,37AQKJ12TXUZU2HNQQODGRRCUFVTTU,2,,151,4912,2kFemale/F251,2kFemale/F174,2,1,2kFemale/F868,2kFemale/F174,2kFemale/F251
3,3DOCMVPBTOK5RW5CM1LRNDAC0MRNNY,ADIIRT3CODKPW,37AQKJ12TXUZU2HNQQODGRRCUFVTTU,2,,152,4140,2kFemale/F372,2kFemale/F385,0,2,2kFemale/F372,2kFemale/F231,2kFemale/F385
3,3DOCMVPBTOK5RW5CM1LRNDAC0MRNNY,ADIIRT3CODKPW,37AQKJ12TXUZU2HNQQODGRRCUFVTTU,2,,153,3233,2kFemale/F729,2kFemale/F757,1,2,2kFemale/F364,2kFemale/F729,2kFemale/F757
3,3DOCMVPBTOK5RW5CM1LRNDAC0MRNNY,ADIIRT3CODKPW,37AQKJ12TXUZU2HNQQODGRRCUFVTTU,2,,154,3407,2kFemale/F57,2kFemale/F912,2,0,2kFemale/F912,2kFemale/F548,2kFemale/F57
3,3DOCMVPBTOK5RW5CM1LRNDAC0MRNNY,ADIIRT3CODKPW,37AQKJ12TXUZU2HNQQODGRRCUFVTTU,2,,155,2503,2kFemale/F791,2kFemale/F557,1,2,2kFemale/F336,2kFemale/F791,2kFemale/F557
3,3DOCMVPBTOK5RW5CM1LRNDAC0MRNNY,ADIIRT3CODKPW,37AQKJ12TXUZU2HNQQODGRRCUFVTTU,2,,156,8390,2kFemale/F411,2kFemale/F411,http://52.23.229.132/2kFemale/F762.jpg,2,1,2kFemale/F248,2kFemale/F762,2kFemale/F411
3,3DOCMVPBTOK5RW5CM1LRNDAC0MRNNY,ADIIRT3CODKPW,37AQKJ12TXUZU2HNQQODGRRCUFVTTU,2,,157,2492,2kFemale/F657,2kFemale/F624,1,0,2kFemale/F624,2kFemale/F657,2kFemale/F712
3,3DOCMVPBTOK5RW5CM1LRNDAC0MRNNY,ADIIRT3CODKPW,37AQKJ12TXUZU2HNQQODGRRCUFVTTU,2,,158,4038,2kFemale/F709,2kFemale/F624,0,2,2kFemale/F709,2kFemale/F374,2kFemale/F624
3,3DOCMVPBTOK5RW5CM1LRNDAC0MRNNY,ADIIRT3CODKPW,37AQKJ12TXUZU2HNQQODGRRCUFVTTU,2,,159,5655,2kFemale/F418,2kFemale/F418,http://52.23.229.132/2kFemale/F33.jpg,2,1,2kFemale/F906,2kFemale/F33,2kFemale/F418
3,3DOCMVPBTOK5RW5CM1LRNDAC0MRNNY,ADIIRT3CODKPW,37AQKJ12TXUZU2HNQQODGRRCUFVTTU,2,,160,3257,2kFemale/F662,2kFemale/F302,1,2,2kFemale/F785,2kFemale/F662,2kFemale/F302
3,3DOCMVPBTOK5RW5CM1LRNDAC0MRNNY,ADIIRT3CODKPW,37AQKJ12TXUZU2HNQQODGRRCUFVTTU,2,,161,3332,2kFemale/F132,2kFemale/F915,2,0,2kFemale/F915,2kFemale/F521,2kFemale/F132
3,3DOCMVPBTOK5RW5CM1LRNDAC0MRNNY,ADIIRT3CODKPW,37AQKJ12TXUZU2HNQQODGRRCUFVTTU,2,,162,6612,2kFemale/F673,2kFemale/F31,1,2,2kFemale/F164,2kFemale/F673,2kFemale/F31
3,3DOCMVPBTOK5RW5CM1LRNDAC0MRNNY,ADIIRT3CODKPW,37AQKJ12TXUZU2HNQQODGRRCUFVTTU,2,,163,4408,2kFemale/F158,2kFemale/F574,0,1,2kFemale/F158,2kFemale/F574,2kFemale/F251
3,3DOCMVPBTOK5RW5CM1LRNDAC0MRNNY,ADIIRT3CODKPW,37AQKJ12TXUZU2HNQQODGRRCUFVTTU,2,,164,4163,2kFemale/F321,2kFemale/F12,1,0,2kFemale/F12,2kFemale/F321,2kFemale/F155
3,3DOCMVPBTOK5RW5CM1LRNDAC0MRNNY,ADIIRT3CODKPW,37AQKJ12TXUZU2HNQQODGRRCUFVTTU,2,,165,4577,2kFemale/F124,2kFemale/F447,0,2,2kFemale/F124,2kFemale/F542,2kFemale/F447
3,3DOCMVPBTOK5RW5CM1LRNDAC0MRNNY,ADIIRT3CODKPW,37AQKJ12TXUZU2HNQQODGRRCUFVTTU,2,,166,6178,2kFemale/F623,2kFemale/F264,2,0,2kFemale/F264,2kFemale/F648,2kFemale/F623
3,3DOCMVPBTOK5RW5CM1LRNDAC0MRNNY,ADIIRT3CODKPW,37AQKJ12TXUZU2HNQQODGRRCUFVTTU,2,,167,4937,2kFemale/F861,2kFemale/F900,0,1,2kFemale/F861,2kFemale/F900,2kFemale/F467
3,3DOCMVPBTOK5RW5CM1LRNDAC0MRNNY,ADIIRT3CODKPW,37AQKJ12TXUZU2HNQQODGRRCUFVTTU,2,,168,3771,2kFemale/F581,2kFemale/F863,1,0,2kFemale/F863,2kFemale/F581,2kFemale/F588
3,3DOCMVPBTOK5RW5CM1LRNDAC0MRNNY,ADIIRT3CODKPW,37AQKJ12TXUZU2HNQQODGRRCUFVTTU,2,,169,9949,2kFemale/F198,2kFemale/F560,1,0,2kFemale/F560,2kFemale/F198,2kFemale/F287
3,3DOCMVPBTOK5RW5CM1LRNDAC0MRNNY,ADIIRT3CODKPW,37AQKJ12TXUZU2HNQQODGRRCUFVTTU,2,,170,6471,2kFemale/F283,2kFemale/F404,0,2,2kFemale/F283,2kFemale/F304,2kFemale/F404
3,3DOCMVPBTOK5RW5CM1LRNDAC0MRNNY,ADIIRT3CODKPW,37AQKJ12TXUZU2HNQQODGRRCUFVTTU,2,,171,6176,2kFemale/F646,2kFemale/F466,2,0,2kFemale/F466,2kFemale/F595,2kFemale/F646
3,3DOCMVPBTOK5RW5CM1LRNDAC0MRNNY,ADIIRT3CODKPW,37AQKJ12TXUZU2HNQQODGRRCUFVTTU,2,,172,5283,2kFemale/F849,2kFemale/F318,1,2,2kFemale/F862,2kFemale/F849,2kFemale/F318
3,3DOCMVPBTOK5RW5CM1LRNDAC0MRNNY,ADIIRT3CODKPW,37AQKJ12TXUZU2HNQQODGRRCUFVTTU,2,,173,4054,2kFemale/F697,2kFemale/F551,0,2,2kFemale/F697,2kFemale/F466,2kFemale/F551
3,3DOCMVPBTOK5RW5CM1LRNDAC0MRNNY,ADIIRT3CODKPW,37AQKJ12TXUZU2HNQQODGRRCUFVTTU,2,,174,2995,2kFemale/F869,2kFemale/F843,2,1,2kFemale/F36,2kFemale/F843,2kFemale/F869
3,3DOCMVPBTOK5RW5CM1LRNDAC0MRNNY,ADIIRT3CODKPW,37AQKJ12TXUZU2HNQQODGRRCUFVTTU,2,,175,4306,2kFemale/F464,2kFemale/F740,1,0,2kFemale/F740,2kFemale/F464,2kFemale/F415
3,3DOCMVPBTOK5RW5CM1LRNDAC0MRNNY,ADIIRT3CODKPW,37AQKJ12TXUZU2HNQQODGRRCUFVTTU,2,,176,5915,2kFemale/F649,2kFemale/F449,2,0,2kFemale/F449,2kFemale/F57,2kFemale/F649
3,3DOCMVPBTOK5RW5CM1LRNDAC0MRNNY,ADIIRT3CODKPW,37AQKJ12TXUZU2HNQQODGRRCUFVTTU,2,,177,3551,2kFemale/F471,2kFemale/F742,0,1,2kFemale/F471,2kFemale/F742,2kFemale/F681
3,3DOCMVPBTOK5RW5CM1LRNDAC0MRNNY,ADIIRT3CODKPW,37AQKJ12TXUZU2HNQQODGRRCUFVTTU,2,,178,4505,2kFemale/F377,2kFemale/F940,0,2,2kFemale/F377,2kFemale/F350,2kFemale/F940
3,3DOCMVPBTOK5RW5CM1LRNDAC0MRNNY,ADIIRT3CODKPW,37AQKJ12TXUZU2HNQQODGRRCUFVTTU,2,,179,3834,2kFemale/F803,2kFemale/F449,2,0,2kFemale/F449,2kFemale/F220,2kFemale/F803
3,3DOCMVPBTOK5RW5CM1LRNDAC0MRNNY,ADIIRT3CODKPW,37AQKJ12TXUZU2HNQQODGRRCUFVTTU,2,,180,4259,2kFemale/F430,2kFemale/F521,0,1,2kFemale/F430,2kFemale/F521,2kFemale/F282
3,3DOCMVPBTOK5RW5CM1LRNDAC0MRNNY,ADIIRT3CODKPW,37AQKJ12TXUZU2HNQQODGRRCUFVTTU,2,,181,6429,2kFemale/F880,2kFemale/F410,0,1,2kFemale/F880,2kFemale/F410,2kFemale/F176
3,3DOCMVPBTOK5RW5CM1LRNDAC0MRNNY,ADIIRT3CODKPW,37AQKJ12TXUZU2HNQQODGRRCUFVTTU,2,,182,4079,2kFemale/F166,2kFemale/F791,0,2,2kFemale/F166,2kFemale/F373,2kFemale/F791
3,3DOCMVPBTOK5RW5CM1LRNDAC0MRNNY,ADIIRT3CODKPW,37AQKJ12TXUZU2HNQQODGRRCUFVTTU,2,,183,3470,2kFemale/F778,2kFemale/F93,2,0,2kFemale/F93,2kFemale/F779,2kFemale/F778
3,3DOCMVPBTOK5RW5CM1LRNDAC0MRNNY,ADIIRT3CODKPW,37AQKJ12TXUZU2HNQQODGRRCUFVTTU,2,,184,3461,2kFemale/F759,2kFemale/F250,0,2,2kFemale/F759,2kFemale/F94,2kFemale/F250
3,3DOCMVPBTOK5RW5CM1LRNDAC0MRNNY,ADIIRT3CODKPW,37AQKJ12TXUZU2HNQQODGRRCUFVTTU,2,,185,4946,2kFemale/F863,2kFemale/F863,http://52.23.229.132/2kFemale/F418.jpg,0,2,2kFemale/F863,2kFemale/F933,2kFemale/F418
3,3DOCMVPBTOK5RW5CM1LRNDAC0MRNNY,ADIIRT3CODKPW,37AQKJ12TXUZU2HNQQODGRRCUFVTTU,2,,186,3130,2kFemale/F484,2kFemale/F292,2,1,2kFemale/F426,2kFemale/F292,2kFemale/F484
3,3DOCMVPBTOK5RW5CM1LRNDAC0MRNNY,ADIIRT3CODKPW,37AQKJ12TXUZU2HNQQODGRRCUFVTTU,2,,187,2304,2kFemale/F212,2kFemale/F112,1,2,2kFemale/F678,2kFemale/F212,2kFemale/F112
3,3DOCMVPBTOK5RW5CM1LRNDAC0MRNNY,ADIIRT3CODKPW,37AQKJ12TXUZU2HNQQODGRRCUFVTTU,2,,188,3522,2kFemale/F710,2kFemale/F180,0,1,2kFemale/F710,2kFemale/F180,2kFemale/F654
3,3DOCMVPBTOK5RW5CM1LRNDAC0MRNNY,ADIIRT3CODKPW,37AQKJ12TXUZU2HNQQODGRRCUFVTTU,2,,189,5844,2kFemale/F227,2kFemale/F916,0,2,2kFemale/F227,2kFemale/F437,2kFemale/F916
3,3DOCMVPBTOK5RW5CM1LRNDAC0MRNNY,ADIIRT3CODKPW,37AQKJ12TXUZU2HNQQODGRRCUFVTTU,2,,190,4261,2kFemale/F497,2kFemale/F41,2,0,2kFemale/F41,2kFemale/F69,2kFemale/F497
3,3DOCMVPBTOK5RW5CM1LRNDAC0MRNNY,ADIIRT3CODKPW,37AQKJ12TXUZU2HNQQODGRRCUFVTTU,2,,191,2761,2kFemale/F710,2kFemale/F477,0,1,2kFemale/F710,2kFemale/F477,2kFemale/F457
3,3DOCMVPBTOK5RW5CM1LRNDAC0MRNNY,ADIIRT3CODKPW,37AQKJ12TXUZU2HNQQODGRRCUFVTTU,2,,192,3729,2kFemale/F522,2kFemale/F221,0,2,2kFemale/F522,2kFemale/F497,2kFemale/F221
3,3DOCMVPBTOK5RW5CM1LRNDAC0MRNNY,ADIIRT3CODKPW,37AQKJ12TXUZU2HNQQODGRRCUFVTTU,2,,193,8847,2kFemale/F186,2kFemale/F163,0,2,2kFemale/F186,2kFemale/F216,2kFemale/F163
3,3DOCMVPBTOK5RW5CM1LRNDAC0MRNNY,ADIIRT3CODKPW,37AQKJ12TXUZU2HNQQODGRRCUFVTTU,2,,194,5914,2kFemale/F844,2kFemale/F229,2,1,2kFemale/F175,2kFemale/F229,2kFemale/F844
3,3DOCMVPBTOK5RW5CM1LRNDAC0MRNNY,ADIIRT3CODKPW,37AQKJ12TXUZU2HNQQODGRRCUFVTTU,2,,195,3586,2kFemale/F106,2kFemale/F389,0,2,2kFemale/F106,2kFemale/F246,2kFemale/F389
3,3DOCMVPBTOK5RW5CM1LRNDAC0MRNNY,ADIIRT3CODKPW,37AQKJ12TXUZU2HNQQODGRRCUFVTTU,2,,196,3831,2kFemale/F30,2kFemale/F189,2,1,2kFemale/F666,2kFemale/F189,2kFemale/F30
3,3DOCMVPBTOK5RW5CM1LRNDAC0MRNNY,ADIIRT3CODKPW,37AQKJ12TXUZU2HNQQODGRRCUFVTTU,2,,197,3670,2kFemale/F766,2kFemale/F380,0,2,2kFemale/F766,2kFemale/F58,2kFemale/F380
3,3DOCMVPBTOK5RW5CM1LRNDAC0MRNNY,ADIIRT3CODKPW,37AQKJ12TXUZU2HNQQODGRRCUFVTTU,2,,198,3024,2kFemale/F619,2kFemale/F697,0,1,2kFemale/F619,2kFemale/F697,2kFemale/F617
3,3DOCMVPBTOK5RW5CM1LRNDAC0MRNNY,ADIIRT3CODKPW,37AQKJ12TXUZU2HNQQODGRRCUFVTTU,2,,199,4404,2kFemale/F487,2kFemale/F756,0,2,2kFemale/F487,2kFemale/F779,2kFemale/F756
3,3DOCMVPBTOK5RW5CM1LRNDAC0MRNNY,ADIIRT3CODKPW,37AQKJ12TXUZU2HNQQODGRRCUFVTTU,2,,200,3090,2kFemale/F933,2kFemale/F679,0,1,2kFemale/F933,2kFemale/F679,2kFemale/F476
3,3DOCMVPBTOK5RW5CM1LRNDAC0MRNNY,ADIIRT3CODKPW,37AQKJ12TXUZU2HNQQODGRRCUFVTTU,2,,201,11002,2kFemale/F433,2kFemale/F763,1,0,2kFemale/F763,2kFemale/F433,2kFemale/F412
