workerCounter,assignmentId,workerId,hitId,trial type,set,global index,reaction time,response1,response2,responseLoc1,responseLoc2,stimulus1,stimulus2,stimulus3
1,3ZR9AIQJUCFGKS3Z3Q4XDS8Z0YR04I,AGFWV1U4CJXP5,3LG268AV38CKP4MYW6UNHQQT2Y7REC,1,1,5,13862,2kFemale/F19,2kFemale/F18,1,0,2kFemale/F18,2kFemale/F19,2kFemale/F16
1,3ZR9AIQJUCFGKS3Z3Q4XDS8Z0YR04I,AGFWV1U4CJXP5,3LG268AV38CKP4MYW6UNHQQT2Y7REC,1,1,11,2236,2kFemale/F10,2kFemale/F17,1,2,2kFemale/F18,2kFemale/F10,2kFemale/F17
1,3ZR9AIQJUCFGKS3Z3Q4XDS8Z0YR04I,AGFWV1U4CJXP5,3LG268AV38CKP4MYW6UNHQQT2Y7REC,1,1,12,2468,2kFemale/F16,2kFemale/F20,0,2,2kFemale/F16,2kFemale/F12,2kFemale/F20
1,3ZR9AIQJUCFGKS3Z3Q4XDS8Z0YR04I,AGFWV1U4CJXP5,3LG268AV38CKP4MYW6UNHQQT2Y7REC,2,2,14,5492,2kFemale/F332,2kFemale/F425,1,2,2kFemale/F814,2kFemale/F332,2kFemale/F425
1,3ZR9AIQJUCFGKS3Z3Q4XDS8Z0YR04I,AGFWV1U4CJXP5,3LG268AV38CKP4MYW6UNHQQT2Y7REC,2,2,15,4835,2kFemale/F287,2kFemale/F896,1,0,2kFemale/F896,2kFemale/F287,2kFemale/F282
1,3ZR9AIQJUCFGKS3Z3Q4XDS8Z0YR04I,AGFWV1U4CJXP5,3LG268AV38CKP4MYW6UNHQQT2Y7REC,2,2,16,5375,2kFemale/F938,2kFemale/F891,1,0,2kFemale/F891,2kFemale/F938,2kFemale/F817
1,3ZR9AIQJUCFGKS3Z3Q4XDS8Z0YR04I,AGFWV1U4CJXP5,3LG268AV38CKP4MYW6UNHQQT2Y7REC,2,2,17,2063,2kFemale/F644,2kFemale/F868,0,2,2kFemale/F644,2kFemale/F446,2kFemale/F868
1,3ZR9AIQJUCFGKS3Z3Q4XDS8Z0YR04I,AGFWV1U4CJXP5,3LG268AV38CKP4MYW6UNHQQT2Y7REC,2,2,18,2070,2kFemale/F887,2kFemale/F693,1,2,2kFemale/F50,2kFemale/F887,2kFemale/F693
1,3ZR9AIQJUCFGKS3Z3Q4XDS8Z0YR04I,AGFWV1U4CJXP5,3LG268AV38CKP4MYW6UNHQQT2Y7REC,2,2,19,1885,2kFemale/F116,2kFemale/F461,0,2,2kFemale/F116,2kFemale/F822,2kFemale/F461
1,3ZR9AIQJUCFGKS3Z3Q4XDS8Z0YR04I,AGFWV1U4CJXP5,3LG268AV38CKP4MYW6UNHQQT2Y7REC,2,2,20,2597,2kFemale/F380,2kFemale/F30,0,2,2kFemale/F380,2kFemale/F128,2kFemale/F30
1,3ZR9AIQJUCFGKS3Z3Q4XDS8Z0YR04I,AGFWV1U4CJXP5,3LG268AV38CKP4MYW6UNHQQT2Y7REC,2,2,21,2926,2kFemale/F853,2kFemale/F69,0,1,2kFemale/F853,2kFemale/F69,2kFemale/F231
1,3ZR9AIQJUCFGKS3Z3Q4XDS8Z0YR04I,AGFWV1U4CJXP5,3LG268AV38CKP4MYW6UNHQQT2Y7REC,2,2,22,2106,2kFemale/F435,2kFemale/F97,1,2,2kFemale/F293,2kFemale/F435,2kFemale/F97
1,3ZR9AIQJUCFGKS3Z3Q4XDS8Z0YR04I,AGFWV1U4CJXP5,3LG268AV38CKP4MYW6UNHQQT2Y7REC,2,2,23,5079,2kFemale/F501,2kFemale/F501,http://52.23.229.132/2kFemale/F575.jpg,2,1,2kFemale/F637,2kFemale/F575,2kFemale/F501
1,3ZR9AIQJUCFGKS3Z3Q4XDS8Z0YR04I,AGFWV1U4CJXP5,3LG268AV38CKP4MYW6UNHQQT2Y7REC,2,2,24,3540,2kFemale/F200,2kFemale/F806,1,0,2kFemale/F806,2kFemale/F200,2kFemale/F526
1,3ZR9AIQJUCFGKS3Z3Q4XDS8Z0YR04I,AGFWV1U4CJXP5,3LG268AV38CKP4MYW6UNHQQT2Y7REC,2,2,25,2757,2kFemale/F316,2kFemale/F113,0,2,2kFemale/F316,2kFemale/F856,2kFemale/F113
1,3ZR9AIQJUCFGKS3Z3Q4XDS8Z0YR04I,AGFWV1U4CJXP5,3LG268AV38CKP4MYW6UNHQQT2Y7REC,2,2,26,3800,2kFemale/F79,2kFemale/F101,0,1,2kFemale/F79,2kFemale/F101,2kFemale/F136
1,3ZR9AIQJUCFGKS3Z3Q4XDS8Z0YR04I,AGFWV1U4CJXP5,3LG268AV38CKP4MYW6UNHQQT2Y7REC,2,2,27,2500,2kFemale/F476,2kFemale/F663,1,0,2kFemale/F663,2kFemale/F476,2kFemale/F510
1,3ZR9AIQJUCFGKS3Z3Q4XDS8Z0YR04I,AGFWV1U4CJXP5,3LG268AV38CKP4MYW6UNHQQT2Y7REC,2,2,28,2565,2kFemale/F269,2kFemale/F606,1,0,2kFemale/F606,2kFemale/F269,2kFemale/F513
1,3ZR9AIQJUCFGKS3Z3Q4XDS8Z0YR04I,AGFWV1U4CJXP5,3LG268AV38CKP4MYW6UNHQQT2Y7REC,2,2,29,2042,2kFemale/F482,2kFemale/F601,0,2,2kFemale/F482,2kFemale/F725,2kFemale/F601
1,3ZR9AIQJUCFGKS3Z3Q4XDS8Z0YR04I,AGFWV1U4CJXP5,3LG268AV38CKP4MYW6UNHQQT2Y7REC,2,2,30,2295,2kFemale/F787,2kFemale/F322,0,1,2kFemale/F787,2kFemale/F322,2kFemale/F280
1,3ZR9AIQJUCFGKS3Z3Q4XDS8Z0YR04I,AGFWV1U4CJXP5,3LG268AV38CKP4MYW6UNHQQT2Y7REC,2,2,31,2704,2kFemale/F749,2kFemale/F169,0,2,2kFemale/F749,2kFemale/F489,2kFemale/F169
1,3ZR9AIQJUCFGKS3Z3Q4XDS8Z0YR04I,AGFWV1U4CJXP5,3LG268AV38CKP4MYW6UNHQQT2Y7REC,2,2,32,2660,2kFemale/F802,2kFemale/F25,1,0,2kFemale/F25,2kFemale/F802,2kFemale/F532
1,3ZR9AIQJUCFGKS3Z3Q4XDS8Z0YR04I,AGFWV1U4CJXP5,3LG268AV38CKP4MYW6UNHQQT2Y7REC,2,2,33,2399,2kFemale/F553,2kFemale/F885,1,0,2kFemale/F885,2kFemale/F553,2kFemale/F17
1,3ZR9AIQJUCFGKS3Z3Q4XDS8Z0YR04I,AGFWV1U4CJXP5,3LG268AV38CKP4MYW6UNHQQT2Y7REC,2,2,34,3342,2kFemale/F346,2kFemale/F466,0,2,2kFemale/F346,2kFemale/F48,2kFemale/F466
1,3ZR9AIQJUCFGKS3Z3Q4XDS8Z0YR04I,AGFWV1U4CJXP5,3LG268AV38CKP4MYW6UNHQQT2Y7REC,2,2,35,2125,2kFemale/F169,2kFemale/F631,1,2,2kFemale/F52,2kFemale/F169,2kFemale/F631
1,3ZR9AIQJUCFGKS3Z3Q4XDS8Z0YR04I,AGFWV1U4CJXP5,3LG268AV38CKP4MYW6UNHQQT2Y7REC,2,2,36,2794,2kFemale/F60,2kFemale/F284,0,1,2kFemale/F60,2kFemale/F284,2kFemale/F45
1,3ZR9AIQJUCFGKS3Z3Q4XDS8Z0YR04I,AGFWV1U4CJXP5,3LG268AV38CKP4MYW6UNHQQT2Y7REC,2,2,37,3358,2kFemale/F445,2kFemale/F617,1,2,2kFemale/F318,2kFemale/F445,2kFemale/F617
1,3ZR9AIQJUCFGKS3Z3Q4XDS8Z0YR04I,AGFWV1U4CJXP5,3LG268AV38CKP4MYW6UNHQQT2Y7REC,2,2,38,3494,2kFemale/F538,2kFemale/F199,1,0,2kFemale/F199,2kFemale/F538,2kFemale/F609
1,3ZR9AIQJUCFGKS3Z3Q4XDS8Z0YR04I,AGFWV1U4CJXP5,3LG268AV38CKP4MYW6UNHQQT2Y7REC,2,2,39,3150,2kFemale/F509,2kFemale/F863,1,0,2kFemale/F863,2kFemale/F509,2kFemale/F104
1,3ZR9AIQJUCFGKS3Z3Q4XDS8Z0YR04I,AGFWV1U4CJXP5,3LG268AV38CKP4MYW6UNHQQT2Y7REC,2,2,40,2565,2kFemale/F813,2kFemale/F258,0,2,2kFemale/F813,2kFemale/F832,2kFemale/F258
1,3ZR9AIQJUCFGKS3Z3Q4XDS8Z0YR04I,AGFWV1U4CJXP5,3LG268AV38CKP4MYW6UNHQQT2Y7REC,3,2,41,2017,2kFemale/F196,2kFemale/F196,true,true,2kFemale/F196,2kFemale/F196,2kFemale/F194
1,3ZR9AIQJUCFGKS3Z3Q4XDS8Z0YR04I,AGFWV1U4CJXP5,3LG268AV38CKP4MYW6UNHQQT2Y7REC,2,2,42,2255,2kFemale/F398,2kFemale/F902,0,2,2kFemale/F398,2kFemale/F197,2kFemale/F902
1,3ZR9AIQJUCFGKS3Z3Q4XDS8Z0YR04I,AGFWV1U4CJXP5,3LG268AV38CKP4MYW6UNHQQT2Y7REC,2,2,43,3301,2kFemale/F733,2kFemale/F937,1,0,2kFemale/F937,2kFemale/F733,2kFemale/F553
1,3ZR9AIQJUCFGKS3Z3Q4XDS8Z0YR04I,AGFWV1U4CJXP5,3LG268AV38CKP4MYW6UNHQQT2Y7REC,2,2,44,4443,2kFemale/F184,2kFemale/F118,0,1,2kFemale/F184,2kFemale/F118,2kFemale/F196
1,3ZR9AIQJUCFGKS3Z3Q4XDS8Z0YR04I,AGFWV1U4CJXP5,3LG268AV38CKP4MYW6UNHQQT2Y7REC,2,2,45,5515,2kFemale/F856,2kFemale/F188,0,1,2kFemale/F856,2kFemale/F188,2kFemale/F89
1,3ZR9AIQJUCFGKS3Z3Q4XDS8Z0YR04I,AGFWV1U4CJXP5,3LG268AV38CKP4MYW6UNHQQT2Y7REC,2,2,46,2664,2kFemale/F425,2kFemale/F467,0,2,2kFemale/F425,2kFemale/F118,2kFemale/F467
1,3ZR9AIQJUCFGKS3Z3Q4XDS8Z0YR04I,AGFWV1U4CJXP5,3LG268AV38CKP4MYW6UNHQQT2Y7REC,2,2,47,3855,2kFemale/F140,2kFemale/F41,0,2,2kFemale/F140,2kFemale/F180,2kFemale/F41
1,3ZR9AIQJUCFGKS3Z3Q4XDS8Z0YR04I,AGFWV1U4CJXP5,3LG268AV38CKP4MYW6UNHQQT2Y7REC,2,2,48,2906,2kFemale/F515,2kFemale/F942,1,0,2kFemale/F942,2kFemale/F515,2kFemale/F673
1,3ZR9AIQJUCFGKS3Z3Q4XDS8Z0YR04I,AGFWV1U4CJXP5,3LG268AV38CKP4MYW6UNHQQT2Y7REC,2,2,49,3548,2kFemale/F779,2kFemale/F728,2,1,2kFemale/F443,2kFemale/F728,2kFemale/F779
1,3ZR9AIQJUCFGKS3Z3Q4XDS8Z0YR04I,AGFWV1U4CJXP5,3LG268AV38CKP4MYW6UNHQQT2Y7REC,2,2,50,2355,2kFemale/F704,2kFemale/F819,0,2,2kFemale/F704,2kFemale/F61,2kFemale/F819
1,3ZR9AIQJUCFGKS3Z3Q4XDS8Z0YR04I,AGFWV1U4CJXP5,3LG268AV38CKP4MYW6UNHQQT2Y7REC,2,2,51,2073,2kFemale/F128,2kFemale/F286,1,0,2kFemale/F286,2kFemale/F128,2kFemale/F203
1,3ZR9AIQJUCFGKS3Z3Q4XDS8Z0YR04I,AGFWV1U4CJXP5,3LG268AV38CKP4MYW6UNHQQT2Y7REC,2,2,52,2969,2kFemale/F159,2kFemale/F546,0,2,2kFemale/F159,2kFemale/F592,2kFemale/F546
1,3ZR9AIQJUCFGKS3Z3Q4XDS8Z0YR04I,AGFWV1U4CJXP5,3LG268AV38CKP4MYW6UNHQQT2Y7REC,2,2,53,3836,2kFemale/F536,2kFemale/F176,0,1,2kFemale/F536,2kFemale/F176,2kFemale/F568
1,3ZR9AIQJUCFGKS3Z3Q4XDS8Z0YR04I,AGFWV1U4CJXP5,3LG268AV38CKP4MYW6UNHQQT2Y7REC,2,2,54,2792,2kFemale/F55,2kFemale/F320,0,2,2kFemale/F55,2kFemale/F497,2kFemale/F320
1,3ZR9AIQJUCFGKS3Z3Q4XDS8Z0YR04I,AGFWV1U4CJXP5,3LG268AV38CKP4MYW6UNHQQT2Y7REC,2,2,55,2491,2kFemale/F52,2kFemale/F421,0,1,2kFemale/F52,2kFemale/F421,2kFemale/F13
1,3ZR9AIQJUCFGKS3Z3Q4XDS8Z0YR04I,AGFWV1U4CJXP5,3LG268AV38CKP4MYW6UNHQQT2Y7REC,2,2,56,2354,2kFemale/F601,2kFemale/F31,0,1,2kFemale/F601,2kFemale/F31,2kFemale/F585
1,3ZR9AIQJUCFGKS3Z3Q4XDS8Z0YR04I,AGFWV1U4CJXP5,3LG268AV38CKP4MYW6UNHQQT2Y7REC,2,2,57,4206,2kFemale/F100,2kFemale/F701,0,2,2kFemale/F100,2kFemale/F710,2kFemale/F701
1,3ZR9AIQJUCFGKS3Z3Q4XDS8Z0YR04I,AGFWV1U4CJXP5,3LG268AV38CKP4MYW6UNHQQT2Y7REC,2,2,58,2612,2kFemale/F953,2kFemale/F395,0,2,2kFemale/F953,2kFemale/F275,2kFemale/F395
1,3ZR9AIQJUCFGKS3Z3Q4XDS8Z0YR04I,AGFWV1U4CJXP5,3LG268AV38CKP4MYW6UNHQQT2Y7REC,2,2,59,2688,2kFemale/F949,2kFemale/F283,0,2,2kFemale/F949,2kFemale/F317,2kFemale/F283
1,3ZR9AIQJUCFGKS3Z3Q4XDS8Z0YR04I,AGFWV1U4CJXP5,3LG268AV38CKP4MYW6UNHQQT2Y7REC,2,2,60,3094,2kFemale/F630,2kFemale/F848,0,2,2kFemale/F630,2kFemale/F695,2kFemale/F848
1,3ZR9AIQJUCFGKS3Z3Q4XDS8Z0YR04I,AGFWV1U4CJXP5,3LG268AV38CKP4MYW6UNHQQT2Y7REC,2,2,61,3200,2kFemale/F77,2kFemale/F740,1,2,2kFemale/F86,2kFemale/F77,2kFemale/F740
1,3ZR9AIQJUCFGKS3Z3Q4XDS8Z0YR04I,AGFWV1U4CJXP5,3LG268AV38CKP4MYW6UNHQQT2Y7REC,2,2,62,1523,2kFemale/F712,2kFemale/F10,0,1,2kFemale/F712,2kFemale/F10,2kFemale/F47
1,3ZR9AIQJUCFGKS3Z3Q4XDS8Z0YR04I,AGFWV1U4CJXP5,3LG268AV38CKP4MYW6UNHQQT2Y7REC,2,2,63,1580,2kFemale/F168,2kFemale/F199,0,1,2kFemale/F168,2kFemale/F199,2kFemale/F861
1,3ZR9AIQJUCFGKS3Z3Q4XDS8Z0YR04I,AGFWV1U4CJXP5,3LG268AV38CKP4MYW6UNHQQT2Y7REC,2,2,64,2844,2kFemale/F343,2kFemale/F170,2,1,2kFemale/F96,2kFemale/F170,2kFemale/F343
1,3ZR9AIQJUCFGKS3Z3Q4XDS8Z0YR04I,AGFWV1U4CJXP5,3LG268AV38CKP4MYW6UNHQQT2Y7REC,2,2,65,3634,2kFemale/F664,2kFemale/F120,1,2,2kFemale/F737,2kFemale/F664,2kFemale/F120
1,3ZR9AIQJUCFGKS3Z3Q4XDS8Z0YR04I,AGFWV1U4CJXP5,3LG268AV38CKP4MYW6UNHQQT2Y7REC,2,2,66,4166,2kFemale/F848,2kFemale/F760,1,2,2kFemale/F463,2kFemale/F848,2kFemale/F760
1,3ZR9AIQJUCFGKS3Z3Q4XDS8Z0YR04I,AGFWV1U4CJXP5,3LG268AV38CKP4MYW6UNHQQT2Y7REC,2,2,67,3229,2kFemale/F122,2kFemale/F100,1,0,2kFemale/F100,2kFemale/F122,2kFemale/F523
1,3ZR9AIQJUCFGKS3Z3Q4XDS8Z0YR04I,AGFWV1U4CJXP5,3LG268AV38CKP4MYW6UNHQQT2Y7REC,2,2,68,2914,2kFemale/F935,2kFemale/F384,2,1,2kFemale/F652,2kFemale/F384,2kFemale/F935
1,3ZR9AIQJUCFGKS3Z3Q4XDS8Z0YR04I,AGFWV1U4CJXP5,3LG268AV38CKP4MYW6UNHQQT2Y7REC,3,2,69,2357,2kFemale/F181,2kFemale/F181,true,true,2kFemale/F181,2kFemale/F181,2kFemale/F164
1,3ZR9AIQJUCFGKS3Z3Q4XDS8Z0YR04I,AGFWV1U4CJXP5,3LG268AV38CKP4MYW6UNHQQT2Y7REC,2,2,70,3059,2kFemale/F870,2kFemale/F74,1,0,2kFemale/F74,2kFemale/F870,2kFemale/F673
1,3ZR9AIQJUCFGKS3Z3Q4XDS8Z0YR04I,AGFWV1U4CJXP5,3LG268AV38CKP4MYW6UNHQQT2Y7REC,2,2,71,2056,2kFemale/F303,2kFemale/F207,0,2,2kFemale/F303,2kFemale/F302,2kFemale/F207
1,3ZR9AIQJUCFGKS3Z3Q4XDS8Z0YR04I,AGFWV1U4CJXP5,3LG268AV38CKP4MYW6UNHQQT2Y7REC,2,2,72,1968,2kFemale/F700,2kFemale/F70,0,2,2kFemale/F700,2kFemale/F49,2kFemale/F70
1,3ZR9AIQJUCFGKS3Z3Q4XDS8Z0YR04I,AGFWV1U4CJXP5,3LG268AV38CKP4MYW6UNHQQT2Y7REC,2,2,73,3089,2kFemale/F594,2kFemale/F163,0,2,2kFemale/F594,2kFemale/F941,2kFemale/F163
1,3ZR9AIQJUCFGKS3Z3Q4XDS8Z0YR04I,AGFWV1U4CJXP5,3LG268AV38CKP4MYW6UNHQQT2Y7REC,2,2,74,2590,2kFemale/F71,2kFemale/F378,2,1,2kFemale/F246,2kFemale/F378,2kFemale/F71
1,3ZR9AIQJUCFGKS3Z3Q4XDS8Z0YR04I,AGFWV1U4CJXP5,3LG268AV38CKP4MYW6UNHQQT2Y7REC,2,2,75,2161,2kFemale/F107,2kFemale/F100,1,0,2kFemale/F100,2kFemale/F107,2kFemale/F746
1,3ZR9AIQJUCFGKS3Z3Q4XDS8Z0YR04I,AGFWV1U4CJXP5,3LG268AV38CKP4MYW6UNHQQT2Y7REC,2,2,76,2211,2kFemale/F761,2kFemale/F897,1,2,2kFemale/F85,2kFemale/F761,2kFemale/F897
1,3ZR9AIQJUCFGKS3Z3Q4XDS8Z0YR04I,AGFWV1U4CJXP5,3LG268AV38CKP4MYW6UNHQQT2Y7REC,2,2,77,2371,2kFemale/F660,2kFemale/F275,1,0,2kFemale/F275,2kFemale/F660,2kFemale/F530
1,3ZR9AIQJUCFGKS3Z3Q4XDS8Z0YR04I,AGFWV1U4CJXP5,3LG268AV38CKP4MYW6UNHQQT2Y7REC,2,2,78,2092,2kFemale/F128,2kFemale/F121,1,0,2kFemale/F121,2kFemale/F128,2kFemale/F94
1,3ZR9AIQJUCFGKS3Z3Q4XDS8Z0YR04I,AGFWV1U4CJXP5,3LG268AV38CKP4MYW6UNHQQT2Y7REC,2,2,79,2832,2kFemale/F349,2kFemale/F83,1,0,2kFemale/F83,2kFemale/F349,2kFemale/F352
1,3ZR9AIQJUCFGKS3Z3Q4XDS8Z0YR04I,AGFWV1U4CJXP5,3LG268AV38CKP4MYW6UNHQQT2Y7REC,2,2,80,2292,2kFemale/F851,2kFemale/F669,1,2,2kFemale/F240,2kFemale/F851,2kFemale/F669
1,3ZR9AIQJUCFGKS3Z3Q4XDS8Z0YR04I,AGFWV1U4CJXP5,3LG268AV38CKP4MYW6UNHQQT2Y7REC,2,2,81,6402,2kFemale/F506,2kFemale/F506,http://52.23.229.132/2kFemale/F281.jpg,1,0,2kFemale/F281,2kFemale/F506,2kFemale/F792
1,3ZR9AIQJUCFGKS3Z3Q4XDS8Z0YR04I,AGFWV1U4CJXP5,3LG268AV38CKP4MYW6UNHQQT2Y7REC,2,2,82,3024,2kFemale/F582,2kFemale/F301,0,2,2kFemale/F582,2kFemale/F57,2kFemale/F301
1,3ZR9AIQJUCFGKS3Z3Q4XDS8Z0YR04I,AGFWV1U4CJXP5,3LG268AV38CKP4MYW6UNHQQT2Y7REC,2,2,83,3278,2kFemale/F226,2kFemale/F96,2,0,2kFemale/F96,2kFemale/F280,2kFemale/F226
1,3ZR9AIQJUCFGKS3Z3Q4XDS8Z0YR04I,AGFWV1U4CJXP5,3LG268AV38CKP4MYW6UNHQQT2Y7REC,2,2,84,2148,2kFemale/F413,2kFemale/F105,0,2,2kFemale/F413,2kFemale/F625,2kFemale/F105
1,3ZR9AIQJUCFGKS3Z3Q4XDS8Z0YR04I,AGFWV1U4CJXP5,3LG268AV38CKP4MYW6UNHQQT2Y7REC,2,2,85,2448,2kFemale/F125,2kFemale/F88,0,1,2kFemale/F125,2kFemale/F88,2kFemale/F8
1,3ZR9AIQJUCFGKS3Z3Q4XDS8Z0YR04I,AGFWV1U4CJXP5,3LG268AV38CKP4MYW6UNHQQT2Y7REC,2,2,86,2975,2kFemale/F224,2kFemale/F556,2,0,2kFemale/F556,2kFemale/F705,2kFemale/F224
1,3ZR9AIQJUCFGKS3Z3Q4XDS8Z0YR04I,AGFWV1U4CJXP5,3LG268AV38CKP4MYW6UNHQQT2Y7REC,2,2,87,3693,2kFemale/F299,2kFemale/F159,1,2,2kFemale/F532,2kFemale/F299,2kFemale/F159
1,3ZR9AIQJUCFGKS3Z3Q4XDS8Z0YR04I,AGFWV1U4CJXP5,3LG268AV38CKP4MYW6UNHQQT2Y7REC,2,2,88,2452,2kFemale/F601,2kFemale/F507,2,0,2kFemale/F507,2kFemale/F104,2kFemale/F601
1,3ZR9AIQJUCFGKS3Z3Q4XDS8Z0YR04I,AGFWV1U4CJXP5,3LG268AV38CKP4MYW6UNHQQT2Y7REC,2,2,89,2927,2kFemale/F384,2kFemale/F591,0,1,2kFemale/F384,2kFemale/F591,2kFemale/F147
1,3ZR9AIQJUCFGKS3Z3Q4XDS8Z0YR04I,AGFWV1U4CJXP5,3LG268AV38CKP4MYW6UNHQQT2Y7REC,2,2,90,3872,2kFemale/F465,2kFemale/F761,1,0,2kFemale/F761,2kFemale/F465,2kFemale/F732
1,3ZR9AIQJUCFGKS3Z3Q4XDS8Z0YR04I,AGFWV1U4CJXP5,3LG268AV38CKP4MYW6UNHQQT2Y7REC,2,2,91,3688,2kFemale/F890,2kFemale/F179,0,1,2kFemale/F890,2kFemale/F179,2kFemale/F254
1,3ZR9AIQJUCFGKS3Z3Q4XDS8Z0YR04I,AGFWV1U4CJXP5,3LG268AV38CKP4MYW6UNHQQT2Y7REC,2,2,92,2615,2kFemale/F736,2kFemale/F370,0,2,2kFemale/F736,2kFemale/F196,2kFemale/F370
1,3ZR9AIQJUCFGKS3Z3Q4XDS8Z0YR04I,AGFWV1U4CJXP5,3LG268AV38CKP4MYW6UNHQQT2Y7REC,2,2,93,2464,2kFemale/F314,2kFemale/F713,0,2,2kFemale/F314,2kFemale/F623,2kFemale/F713
1,3ZR9AIQJUCFGKS3Z3Q4XDS8Z0YR04I,AGFWV1U4CJXP5,3LG268AV38CKP4MYW6UNHQQT2Y7REC,2,2,94,2288,2kFemale/F106,2kFemale/F610,0,2,2kFemale/F106,2kFemale/F112,2kFemale/F610
1,3ZR9AIQJUCFGKS3Z3Q4XDS8Z0YR04I,AGFWV1U4CJXP5,3LG268AV38CKP4MYW6UNHQQT2Y7REC,2,2,95,2631,2kFemale/F506,2kFemale/F88,0,1,2kFemale/F506,2kFemale/F88,2kFemale/F386
1,3ZR9AIQJUCFGKS3Z3Q4XDS8Z0YR04I,AGFWV1U4CJXP5,3LG268AV38CKP4MYW6UNHQQT2Y7REC,2,2,96,4068,2kFemale/F126,2kFemale/F688,1,2,2kFemale/F652,2kFemale/F126,2kFemale/F688
1,3ZR9AIQJUCFGKS3Z3Q4XDS8Z0YR04I,AGFWV1U4CJXP5,3LG268AV38CKP4MYW6UNHQQT2Y7REC,2,2,97,2211,2kFemale/F925,2kFemale/F825,1,2,2kFemale/F701,2kFemale/F925,2kFemale/F825
1,3ZR9AIQJUCFGKS3Z3Q4XDS8Z0YR04I,AGFWV1U4CJXP5,3LG268AV38CKP4MYW6UNHQQT2Y7REC,2,2,98,1807,2kFemale/F432,2kFemale/F342,0,2,2kFemale/F432,2kFemale/F403,2kFemale/F342
1,3ZR9AIQJUCFGKS3Z3Q4XDS8Z0YR04I,AGFWV1U4CJXP5,3LG268AV38CKP4MYW6UNHQQT2Y7REC,2,2,99,2418,2kFemale/F570,2kFemale/F751,1,2,2kFemale/F653,2kFemale/F570,2kFemale/F751
1,3ZR9AIQJUCFGKS3Z3Q4XDS8Z0YR04I,AGFWV1U4CJXP5,3LG268AV38CKP4MYW6UNHQQT2Y7REC,2,2,100,1775,2kFemale/F218,2kFemale/F526,1,0,2kFemale/F526,2kFemale/F218,2kFemale/F611
1,3ZR9AIQJUCFGKS3Z3Q4XDS8Z0YR04I,AGFWV1U4CJXP5,3LG268AV38CKP4MYW6UNHQQT2Y7REC,2,2,101,2050,2kFemale/F176,2kFemale/F530,1,0,2kFemale/F530,2kFemale/F176,2kFemale/F202
1,3ZR9AIQJUCFGKS3Z3Q4XDS8Z0YR04I,AGFWV1U4CJXP5,3LG268AV38CKP4MYW6UNHQQT2Y7REC,2,2,102,3163,2kFemale/F579,2kFemale/F705,1,2,2kFemale/F322,2kFemale/F579,2kFemale/F705
1,3ZR9AIQJUCFGKS3Z3Q4XDS8Z0YR04I,AGFWV1U4CJXP5,3LG268AV38CKP4MYW6UNHQQT2Y7REC,2,2,103,2379,2kFemale/F161,2kFemale/F187,1,2,2kFemale/F136,2kFemale/F161,2kFemale/F187
1,3ZR9AIQJUCFGKS3Z3Q4XDS8Z0YR04I,AGFWV1U4CJXP5,3LG268AV38CKP4MYW6UNHQQT2Y7REC,2,2,104,2442,2kFemale/F696,2kFemale/F744,0,2,2kFemale/F696,2kFemale/F674,2kFemale/F744
1,3ZR9AIQJUCFGKS3Z3Q4XDS8Z0YR04I,AGFWV1U4CJXP5,3LG268AV38CKP4MYW6UNHQQT2Y7REC,2,2,105,5558,2kFemale/F642,2kFemale/F409,0,1,2kFemale/F642,2kFemale/F409,2kFemale/F430
1,3ZR9AIQJUCFGKS3Z3Q4XDS8Z0YR04I,AGFWV1U4CJXP5,3LG268AV38CKP4MYW6UNHQQT2Y7REC,2,2,106,2124,2kFemale/F364,2kFemale/F721,0,2,2kFemale/F364,2kFemale/F154,2kFemale/F721
1,3ZR9AIQJUCFGKS3Z3Q4XDS8Z0YR04I,AGFWV1U4CJXP5,3LG268AV38CKP4MYW6UNHQQT2Y7REC,2,2,107,1855,2kFemale/F413,2kFemale/F721,0,2,2kFemale/F413,2kFemale/F662,2kFemale/F721
1,3ZR9AIQJUCFGKS3Z3Q4XDS8Z0YR04I,AGFWV1U4CJXP5,3LG268AV38CKP4MYW6UNHQQT2Y7REC,2,2,108,3262,2kFemale/F197,2kFemale/F351,1,0,2kFemale/F351,2kFemale/F197,2kFemale/F83
1,3ZR9AIQJUCFGKS3Z3Q4XDS8Z0YR04I,AGFWV1U4CJXP5,3LG268AV38CKP4MYW6UNHQQT2Y7REC,2,2,109,3907,2kFemale/F378,2kFemale/F260,0,1,2kFemale/F378,2kFemale/F260,2kFemale/F36
1,3ZR9AIQJUCFGKS3Z3Q4XDS8Z0YR04I,AGFWV1U4CJXP5,3LG268AV38CKP4MYW6UNHQQT2Y7REC,2,2,110,1931,2kFemale/F278,2kFemale/F918,0,2,2kFemale/F278,2kFemale/F575,2kFemale/F918
1,3ZR9AIQJUCFGKS3Z3Q4XDS8Z0YR04I,AGFWV1U4CJXP5,3LG268AV38CKP4MYW6UNHQQT2Y7REC,2,2,111,2945,2kFemale/F334,2kFemale/F831,1,0,2kFemale/F831,2kFemale/F334,2kFemale/F652
1,3ZR9AIQJUCFGKS3Z3Q4XDS8Z0YR04I,AGFWV1U4CJXP5,3LG268AV38CKP4MYW6UNHQQT2Y7REC,2,2,112,1888,2kFemale/F462,2kFemale/F744,0,2,2kFemale/F462,2kFemale/F145,2kFemale/F744
1,3ZR9AIQJUCFGKS3Z3Q4XDS8Z0YR04I,AGFWV1U4CJXP5,3LG268AV38CKP4MYW6UNHQQT2Y7REC,2,2,113,2625,2kFemale/F378,2kFemale/F742,0,2,2kFemale/F378,2kFemale/F59,2kFemale/F742
1,3ZR9AIQJUCFGKS3Z3Q4XDS8Z0YR04I,AGFWV1U4CJXP5,3LG268AV38CKP4MYW6UNHQQT2Y7REC,2,2,114,3452,2kFemale/F404,2kFemale/F625,0,1,2kFemale/F404,2kFemale/F625,2kFemale/F688
1,3ZR9AIQJUCFGKS3Z3Q4XDS8Z0YR04I,AGFWV1U4CJXP5,3LG268AV38CKP4MYW6UNHQQT2Y7REC,2,2,115,3646,2kFemale/F320,2kFemale/F570,1,0,2kFemale/F570,2kFemale/F320,2kFemale/F285
1,3ZR9AIQJUCFGKS3Z3Q4XDS8Z0YR04I,AGFWV1U4CJXP5,3LG268AV38CKP4MYW6UNHQQT2Y7REC,2,2,117,4030,2kFemale/F731,2kFemale/F321,0,1,2kFemale/F731,2kFemale/F321,2kFemale/F630
1,3ZR9AIQJUCFGKS3Z3Q4XDS8Z0YR04I,AGFWV1U4CJXP5,3LG268AV38CKP4MYW6UNHQQT2Y7REC,2,2,118,1837,2kFemale/F606,2kFemale/F906,0,1,2kFemale/F606,2kFemale/F906,2kFemale/F423
1,3ZR9AIQJUCFGKS3Z3Q4XDS8Z0YR04I,AGFWV1U4CJXP5,3LG268AV38CKP4MYW6UNHQQT2Y7REC,2,2,119,1777,2kFemale/F338,2kFemale/F391,0,1,2kFemale/F338,2kFemale/F391,2kFemale/F937
1,3ZR9AIQJUCFGKS3Z3Q4XDS8Z0YR04I,AGFWV1U4CJXP5,3LG268AV38CKP4MYW6UNHQQT2Y7REC,2,2,120,2809,2kFemale/F173,2kFemale/F20,0,2,2kFemale/F173,2kFemale/F244,2kFemale/F20
1,3ZR9AIQJUCFGKS3Z3Q4XDS8Z0YR04I,AGFWV1U4CJXP5,3LG268AV38CKP4MYW6UNHQQT2Y7REC,2,2,121,2344,2kFemale/F765,2kFemale/F64,0,2,2kFemale/F765,2kFemale/F942,2kFemale/F64
1,3ZR9AIQJUCFGKS3Z3Q4XDS8Z0YR04I,AGFWV1U4CJXP5,3LG268AV38CKP4MYW6UNHQQT2Y7REC,2,2,122,2309,2kFemale/F277,2kFemale/F622,0,2,2kFemale/F277,2kFemale/F303,2kFemale/F622
1,3ZR9AIQJUCFGKS3Z3Q4XDS8Z0YR04I,AGFWV1U4CJXP5,3LG268AV38CKP4MYW6UNHQQT2Y7REC,2,2,123,2120,2kFemale/F778,2kFemale/F775,0,2,2kFemale/F778,2kFemale/F303,2kFemale/F775
1,3ZR9AIQJUCFGKS3Z3Q4XDS8Z0YR04I,AGFWV1U4CJXP5,3LG268AV38CKP4MYW6UNHQQT2Y7REC,2,2,124,1873,2kFemale/F752,2kFemale/F481,0,2,2kFemale/F752,2kFemale/F812,2kFemale/F481
1,3ZR9AIQJUCFGKS3Z3Q4XDS8Z0YR04I,AGFWV1U4CJXP5,3LG268AV38CKP4MYW6UNHQQT2Y7REC,2,2,125,3752,2kFemale/F728,2kFemale/F723,1,2,2kFemale/F230,2kFemale/F728,2kFemale/F723
1,3ZR9AIQJUCFGKS3Z3Q4XDS8Z0YR04I,AGFWV1U4CJXP5,3LG268AV38CKP4MYW6UNHQQT2Y7REC,2,2,126,3237,2kFemale/F826,2kFemale/F58,1,0,2kFemale/F58,2kFemale/F826,2kFemale/F601
1,3ZR9AIQJUCFGKS3Z3Q4XDS8Z0YR04I,AGFWV1U4CJXP5,3LG268AV38CKP4MYW6UNHQQT2Y7REC,2,2,127,2059,2kFemale/F218,2kFemale/F938,0,2,2kFemale/F218,2kFemale/F766,2kFemale/F938
1,3ZR9AIQJUCFGKS3Z3Q4XDS8Z0YR04I,AGFWV1U4CJXP5,3LG268AV38CKP4MYW6UNHQQT2Y7REC,2,2,128,2069,2kFemale/F102,2kFemale/F894,0,2,2kFemale/F102,2kFemale/F587,2kFemale/F894
1,3ZR9AIQJUCFGKS3Z3Q4XDS8Z0YR04I,AGFWV1U4CJXP5,3LG268AV38CKP4MYW6UNHQQT2Y7REC,2,2,129,2770,2kFemale/F169,2kFemale/F253,0,2,2kFemale/F169,2kFemale/F912,2kFemale/F253
1,3ZR9AIQJUCFGKS3Z3Q4XDS8Z0YR04I,AGFWV1U4CJXP5,3LG268AV38CKP4MYW6UNHQQT2Y7REC,2,2,130,2404,2kFemale/F493,2kFemale/F669,0,1,2kFemale/F493,2kFemale/F669,2kFemale/F147
1,3ZR9AIQJUCFGKS3Z3Q4XDS8Z0YR04I,AGFWV1U4CJXP5,3LG268AV38CKP4MYW6UNHQQT2Y7REC,2,2,131,3034,2kFemale/F912,2kFemale/F891,0,1,2kFemale/F912,2kFemale/F891,2kFemale/F436
1,3ZR9AIQJUCFGKS3Z3Q4XDS8Z0YR04I,AGFWV1U4CJXP5,3LG268AV38CKP4MYW6UNHQQT2Y7REC,2,2,132,2789,2kFemale/F851,2kFemale/F156,2,0,2kFemale/F156,2kFemale/F635,2kFemale/F851
1,3ZR9AIQJUCFGKS3Z3Q4XDS8Z0YR04I,AGFWV1U4CJXP5,3LG268AV38CKP4MYW6UNHQQT2Y7REC,2,2,133,3094,2kFemale/F645,2kFemale/F940,1,2,2kFemale/F902,2kFemale/F645,2kFemale/F940
1,3ZR9AIQJUCFGKS3Z3Q4XDS8Z0YR04I,AGFWV1U4CJXP5,3LG268AV38CKP4MYW6UNHQQT2Y7REC,2,2,134,2691,2kFemale/F115,2kFemale/F310,0,2,2kFemale/F115,2kFemale/F500,2kFemale/F310
1,3ZR9AIQJUCFGKS3Z3Q4XDS8Z0YR04I,AGFWV1U4CJXP5,3LG268AV38CKP4MYW6UNHQQT2Y7REC,2,2,135,2401,2kFemale/F882,2kFemale/F214,0,1,2kFemale/F882,2kFemale/F214,2kFemale/F356
1,3ZR9AIQJUCFGKS3Z3Q4XDS8Z0YR04I,AGFWV1U4CJXP5,3LG268AV38CKP4MYW6UNHQQT2Y7REC,2,2,136,2424,2kFemale/F237,2kFemale/F430,1,2,2kFemale/F263,2kFemale/F237,2kFemale/F430
1,3ZR9AIQJUCFGKS3Z3Q4XDS8Z0YR04I,AGFWV1U4CJXP5,3LG268AV38CKP4MYW6UNHQQT2Y7REC,2,2,137,1982,2kFemale/F331,2kFemale/F689,2,1,2kFemale/F43,2kFemale/F689,2kFemale/F331
1,3ZR9AIQJUCFGKS3Z3Q4XDS8Z0YR04I,AGFWV1U4CJXP5,3LG268AV38CKP4MYW6UNHQQT2Y7REC,2,2,138,2997,2kFemale/F691,2kFemale/F353,1,2,2kFemale/F176,2kFemale/F691,2kFemale/F353
1,3ZR9AIQJUCFGKS3Z3Q4XDS8Z0YR04I,AGFWV1U4CJXP5,3LG268AV38CKP4MYW6UNHQQT2Y7REC,2,2,139,2769,2kFemale/F881,2kFemale/F887,0,2,2kFemale/F881,2kFemale/F623,2kFemale/F887
1,3ZR9AIQJUCFGKS3Z3Q4XDS8Z0YR04I,AGFWV1U4CJXP5,3LG268AV38CKP4MYW6UNHQQT2Y7REC,2,2,140,2546,2kFemale/F132,2kFemale/F596,2,1,2kFemale/F857,2kFemale/F596,2kFemale/F132
1,3ZR9AIQJUCFGKS3Z3Q4XDS8Z0YR04I,AGFWV1U4CJXP5,3LG268AV38CKP4MYW6UNHQQT2Y7REC,2,2,141,1848,2kFemale/F650,2kFemale/F202,0,2,2kFemale/F650,2kFemale/F442,2kFemale/F202
1,3ZR9AIQJUCFGKS3Z3Q4XDS8Z0YR04I,AGFWV1U4CJXP5,3LG268AV38CKP4MYW6UNHQQT2Y7REC,2,2,142,2549,2kFemale/F732,2kFemale/F639,0,1,2kFemale/F732,2kFemale/F639,2kFemale/F681
1,3ZR9AIQJUCFGKS3Z3Q4XDS8Z0YR04I,AGFWV1U4CJXP5,3LG268AV38CKP4MYW6UNHQQT2Y7REC,2,2,143,2675,2kFemale/F699,2kFemale/F544,1,2,2kFemale/F803,2kFemale/F699,2kFemale/F544
1,3ZR9AIQJUCFGKS3Z3Q4XDS8Z0YR04I,AGFWV1U4CJXP5,3LG268AV38CKP4MYW6UNHQQT2Y7REC,2,2,144,3013,2kFemale/F509,2kFemale/F747,1,0,2kFemale/F747,2kFemale/F509,2kFemale/F842
1,3ZR9AIQJUCFGKS3Z3Q4XDS8Z0YR04I,AGFWV1U4CJXP5,3LG268AV38CKP4MYW6UNHQQT2Y7REC,2,2,145,2758,2kFemale/F94,2kFemale/F167,0,2,2kFemale/F94,2kFemale/F785,2kFemale/F167
1,3ZR9AIQJUCFGKS3Z3Q4XDS8Z0YR04I,AGFWV1U4CJXP5,3LG268AV38CKP4MYW6UNHQQT2Y7REC,2,2,146,2473,2kFemale/F369,2kFemale/F576,2,1,2kFemale/F622,2kFemale/F576,2kFemale/F369
1,3ZR9AIQJUCFGKS3Z3Q4XDS8Z0YR04I,AGFWV1U4CJXP5,3LG268AV38CKP4MYW6UNHQQT2Y7REC,2,2,147,2377,2kFemale/F380,2kFemale/F395,1,2,2kFemale/F521,2kFemale/F380,2kFemale/F395
1,3ZR9AIQJUCFGKS3Z3Q4XDS8Z0YR04I,AGFWV1U4CJXP5,3LG268AV38CKP4MYW6UNHQQT2Y7REC,2,2,148,3806,2kFemale/F84,2kFemale/F172,0,2,2kFemale/F84,2kFemale/F610,2kFemale/F172
1,3ZR9AIQJUCFGKS3Z3Q4XDS8Z0YR04I,AGFWV1U4CJXP5,3LG268AV38CKP4MYW6UNHQQT2Y7REC,2,2,149,1982,2kFemale/F515,2kFemale/F909,1,0,2kFemale/F909,2kFemale/F515,2kFemale/F647
1,3ZR9AIQJUCFGKS3Z3Q4XDS8Z0YR04I,AGFWV1U4CJXP5,3LG268AV38CKP4MYW6UNHQQT2Y7REC,2,2,150,2774,2kFemale/F365,2kFemale/F775,2,1,2kFemale/F711,2kFemale/F775,2kFemale/F365
1,3ZR9AIQJUCFGKS3Z3Q4XDS8Z0YR04I,AGFWV1U4CJXP5,3LG268AV38CKP4MYW6UNHQQT2Y7REC,2,2,151,2574,2kFemale/F35,2kFemale/F771,0,1,2kFemale/F35,2kFemale/F771,2kFemale/F712
1,3ZR9AIQJUCFGKS3Z3Q4XDS8Z0YR04I,AGFWV1U4CJXP5,3LG268AV38CKP4MYW6UNHQQT2Y7REC,2,2,152,2636,2kFemale/F24,2kFemale/F136,1,0,2kFemale/F136,2kFemale/F24,2kFemale/F401
1,3ZR9AIQJUCFGKS3Z3Q4XDS8Z0YR04I,AGFWV1U4CJXP5,3LG268AV38CKP4MYW6UNHQQT2Y7REC,2,2,153,3162,2kFemale/F651,2kFemale/F896,2,0,2kFemale/F896,2kFemale/F18,2kFemale/F651
1,3ZR9AIQJUCFGKS3Z3Q4XDS8Z0YR04I,AGFWV1U4CJXP5,3LG268AV38CKP4MYW6UNHQQT2Y7REC,3,2,154,1901,2kFemale/F200,2kFemale/F200,true,true,2kFemale/F200,2kFemale/F200,2kFemale/F170
1,3ZR9AIQJUCFGKS3Z3Q4XDS8Z0YR04I,AGFWV1U4CJXP5,3LG268AV38CKP4MYW6UNHQQT2Y7REC,2,2,155,2589,2kFemale/F410,2kFemale/F119,0,1,2kFemale/F410,2kFemale/F119,2kFemale/F24
1,3ZR9AIQJUCFGKS3Z3Q4XDS8Z0YR04I,AGFWV1U4CJXP5,3LG268AV38CKP4MYW6UNHQQT2Y7REC,2,2,156,2014,2kFemale/F867,2kFemale/F762,1,2,2kFemale/F21,2kFemale/F867,2kFemale/F762
1,3ZR9AIQJUCFGKS3Z3Q4XDS8Z0YR04I,AGFWV1U4CJXP5,3LG268AV38CKP4MYW6UNHQQT2Y7REC,2,2,157,3542,2kFemale/F630,2kFemale/F597,0,2,2kFemale/F630,2kFemale/F366,2kFemale/F597
1,3ZR9AIQJUCFGKS3Z3Q4XDS8Z0YR04I,AGFWV1U4CJXP5,3LG268AV38CKP4MYW6UNHQQT2Y7REC,2,2,158,2398,2kFemale/F717,2kFemale/F218,0,1,2kFemale/F717,2kFemale/F218,2kFemale/F62
1,3ZR9AIQJUCFGKS3Z3Q4XDS8Z0YR04I,AGFWV1U4CJXP5,3LG268AV38CKP4MYW6UNHQQT2Y7REC,2,2,159,2415,2kFemale/F548,2kFemale/F505,1,2,2kFemale/F589,2kFemale/F548,2kFemale/F505
1,3ZR9AIQJUCFGKS3Z3Q4XDS8Z0YR04I,AGFWV1U4CJXP5,3LG268AV38CKP4MYW6UNHQQT2Y7REC,2,2,160,4204,2kFemale/F706,2kFemale/F708,0,1,2kFemale/F706,2kFemale/F708,2kFemale/F101
1,3ZR9AIQJUCFGKS3Z3Q4XDS8Z0YR04I,AGFWV1U4CJXP5,3LG268AV38CKP4MYW6UNHQQT2Y7REC,2,2,161,3027,2kFemale/F533,2kFemale/F707,0,1,2kFemale/F533,2kFemale/F707,2kFemale/F404
1,3ZR9AIQJUCFGKS3Z3Q4XDS8Z0YR04I,AGFWV1U4CJXP5,3LG268AV38CKP4MYW6UNHQQT2Y7REC,2,2,162,1917,2kFemale/F29,2kFemale/F83,0,2,2kFemale/F29,2kFemale/F510,2kFemale/F83
1,3ZR9AIQJUCFGKS3Z3Q4XDS8Z0YR04I,AGFWV1U4CJXP5,3LG268AV38CKP4MYW6UNHQQT2Y7REC,2,2,163,2502,2kFemale/F612,2kFemale/F399,0,1,2kFemale/F612,2kFemale/F399,2kFemale/F372
1,3ZR9AIQJUCFGKS3Z3Q4XDS8Z0YR04I,AGFWV1U4CJXP5,3LG268AV38CKP4MYW6UNHQQT2Y7REC,2,2,164,2109,2kFemale/F174,2kFemale/F208,1,0,2kFemale/F208,2kFemale/F174,2kFemale/F40
1,3ZR9AIQJUCFGKS3Z3Q4XDS8Z0YR04I,AGFWV1U4CJXP5,3LG268AV38CKP4MYW6UNHQQT2Y7REC,2,2,165,2782,2kFemale/F339,2kFemale/F214,0,2,2kFemale/F339,2kFemale/F950,2kFemale/F214
1,3ZR9AIQJUCFGKS3Z3Q4XDS8Z0YR04I,AGFWV1U4CJXP5,3LG268AV38CKP4MYW6UNHQQT2Y7REC,2,2,166,2798,2kFemale/F156,2kFemale/F877,0,1,2kFemale/F156,2kFemale/F877,2kFemale/F756
1,3ZR9AIQJUCFGKS3Z3Q4XDS8Z0YR04I,AGFWV1U4CJXP5,3LG268AV38CKP4MYW6UNHQQT2Y7REC,2,2,167,1952,2kFemale/F551,2kFemale/F245,0,2,2kFemale/F551,2kFemale/F419,2kFemale/F245
1,3ZR9AIQJUCFGKS3Z3Q4XDS8Z0YR04I,AGFWV1U4CJXP5,3LG268AV38CKP4MYW6UNHQQT2Y7REC,2,2,168,1998,2kFemale/F928,2kFemale/F313,0,1,2kFemale/F928,2kFemale/F313,2kFemale/F797
1,3ZR9AIQJUCFGKS3Z3Q4XDS8Z0YR04I,AGFWV1U4CJXP5,3LG268AV38CKP4MYW6UNHQQT2Y7REC,2,2,169,1957,2kFemale/F563,2kFemale/F46,0,2,2kFemale/F563,2kFemale/F629,2kFemale/F46
1,3ZR9AIQJUCFGKS3Z3Q4XDS8Z0YR04I,AGFWV1U4CJXP5,3LG268AV38CKP4MYW6UNHQQT2Y7REC,2,2,170,2993,2kFemale/F344,2kFemale/F644,1,0,2kFemale/F644,2kFemale/F344,2kFemale/F590
1,3ZR9AIQJUCFGKS3Z3Q4XDS8Z0YR04I,AGFWV1U4CJXP5,3LG268AV38CKP4MYW6UNHQQT2Y7REC,2,2,171,3480,2kFemale/F282,2kFemale/F233,1,0,2kFemale/F233,2kFemale/F282,2kFemale/F647
1,3ZR9AIQJUCFGKS3Z3Q4XDS8Z0YR04I,AGFWV1U4CJXP5,3LG268AV38CKP4MYW6UNHQQT2Y7REC,2,2,172,2581,2kFemale/F769,2kFemale/F466,0,2,2kFemale/F769,2kFemale/F480,2kFemale/F466
1,3ZR9AIQJUCFGKS3Z3Q4XDS8Z0YR04I,AGFWV1U4CJXP5,3LG268AV38CKP4MYW6UNHQQT2Y7REC,2,2,173,2258,2kFemale/F794,2kFemale/F714,0,2,2kFemale/F794,2kFemale/F380,2kFemale/F714
1,3ZR9AIQJUCFGKS3Z3Q4XDS8Z0YR04I,AGFWV1U4CJXP5,3LG268AV38CKP4MYW6UNHQQT2Y7REC,2,2,174,1596,2kFemale/F591,2kFemale/F720,0,2,2kFemale/F591,2kFemale/F344,2kFemale/F720
1,3ZR9AIQJUCFGKS3Z3Q4XDS8Z0YR04I,AGFWV1U4CJXP5,3LG268AV38CKP4MYW6UNHQQT2Y7REC,2,2,175,1934,2kFemale/F716,2kFemale/F525,0,2,2kFemale/F716,2kFemale/F556,2kFemale/F525
1,3ZR9AIQJUCFGKS3Z3Q4XDS8Z0YR04I,AGFWV1U4CJXP5,3LG268AV38CKP4MYW6UNHQQT2Y7REC,2,2,176,2116,2kFemale/F731,2kFemale/F103,0,2,2kFemale/F731,2kFemale/F890,2kFemale/F103
1,3ZR9AIQJUCFGKS3Z3Q4XDS8Z0YR04I,AGFWV1U4CJXP5,3LG268AV38CKP4MYW6UNHQQT2Y7REC,2,2,177,2778,2kFemale/F174,2kFemale/F466,0,2,2kFemale/F174,2kFemale/F95,2kFemale/F466
1,3ZR9AIQJUCFGKS3Z3Q4XDS8Z0YR04I,AGFWV1U4CJXP5,3LG268AV38CKP4MYW6UNHQQT2Y7REC,2,2,178,4355,2kFemale/F256,2kFemale/F385,2,0,2kFemale/F385,2kFemale/F117,2kFemale/F256
1,3ZR9AIQJUCFGKS3Z3Q4XDS8Z0YR04I,AGFWV1U4CJXP5,3LG268AV38CKP4MYW6UNHQQT2Y7REC,2,2,179,2060,2kFemale/F41,2kFemale/F670,0,2,2kFemale/F41,2kFemale/F361,2kFemale/F670
1,3ZR9AIQJUCFGKS3Z3Q4XDS8Z0YR04I,AGFWV1U4CJXP5,3LG268AV38CKP4MYW6UNHQQT2Y7REC,2,2,180,1975,2kFemale/F929,2kFemale/F220,0,2,2kFemale/F929,2kFemale/F621,2kFemale/F220
1,3ZR9AIQJUCFGKS3Z3Q4XDS8Z0YR04I,AGFWV1U4CJXP5,3LG268AV38CKP4MYW6UNHQQT2Y7REC,2,2,181,2733,2kFemale/F636,2kFemale/F181,1,0,2kFemale/F181,2kFemale/F636,2kFemale/F558
1,3ZR9AIQJUCFGKS3Z3Q4XDS8Z0YR04I,AGFWV1U4CJXP5,3LG268AV38CKP4MYW6UNHQQT2Y7REC,2,2,182,1743,2kFemale/F926,2kFemale/F844,0,2,2kFemale/F926,2kFemale/F330,2kFemale/F844
1,3ZR9AIQJUCFGKS3Z3Q4XDS8Z0YR04I,AGFWV1U4CJXP5,3LG268AV38CKP4MYW6UNHQQT2Y7REC,2,2,183,2679,2kFemale/F773,2kFemale/F951,1,0,2kFemale/F951,2kFemale/F773,2kFemale/F462
1,3ZR9AIQJUCFGKS3Z3Q4XDS8Z0YR04I,AGFWV1U4CJXP5,3LG268AV38CKP4MYW6UNHQQT2Y7REC,2,2,184,2578,2kFemale/F341,2kFemale/F268,0,2,2kFemale/F341,2kFemale/F631,2kFemale/F268
1,3ZR9AIQJUCFGKS3Z3Q4XDS8Z0YR04I,AGFWV1U4CJXP5,3LG268AV38CKP4MYW6UNHQQT2Y7REC,2,2,185,3133,2kFemale/F43,2kFemale/F531,0,1,2kFemale/F43,2kFemale/F531,2kFemale/F735
1,3ZR9AIQJUCFGKS3Z3Q4XDS8Z0YR04I,AGFWV1U4CJXP5,3LG268AV38CKP4MYW6UNHQQT2Y7REC,2,2,186,2481,2kFemale/F333,2kFemale/F230,0,2,2kFemale/F333,2kFemale/F430,2kFemale/F230
1,3ZR9AIQJUCFGKS3Z3Q4XDS8Z0YR04I,AGFWV1U4CJXP5,3LG268AV38CKP4MYW6UNHQQT2Y7REC,2,2,187,3816,2kFemale/F949,2kFemale/F338,1,2,2kFemale/F686,2kFemale/F949,2kFemale/F338
1,3ZR9AIQJUCFGKS3Z3Q4XDS8Z0YR04I,AGFWV1U4CJXP5,3LG268AV38CKP4MYW6UNHQQT2Y7REC,2,2,188,2600,2kFemale/F934,2kFemale/F315,0,2,2kFemale/F934,2kFemale/F523,2kFemale/F315
1,3ZR9AIQJUCFGKS3Z3Q4XDS8Z0YR04I,AGFWV1U4CJXP5,3LG268AV38CKP4MYW6UNHQQT2Y7REC,2,2,189,1891,2kFemale/F132,2kFemale/F697,1,0,2kFemale/F697,2kFemale/F132,2kFemale/F796
1,3ZR9AIQJUCFGKS3Z3Q4XDS8Z0YR04I,AGFWV1U4CJXP5,3LG268AV38CKP4MYW6UNHQQT2Y7REC,2,2,190,2506,2kFemale/F307,2kFemale/F526,1,2,2kFemale/F796,2kFemale/F307,2kFemale/F526
1,3ZR9AIQJUCFGKS3Z3Q4XDS8Z0YR04I,AGFWV1U4CJXP5,3LG268AV38CKP4MYW6UNHQQT2Y7REC,2,2,191,2653,2kFemale/F19,2kFemale/F774,1,0,2kFemale/F774,2kFemale/F19,2kFemale/F80
1,3ZR9AIQJUCFGKS3Z3Q4XDS8Z0YR04I,AGFWV1U4CJXP5,3LG268AV38CKP4MYW6UNHQQT2Y7REC,2,2,192,2392,2kFemale/F853,2kFemale/F185,1,0,2kFemale/F185,2kFemale/F853,2kFemale/F95
1,3ZR9AIQJUCFGKS3Z3Q4XDS8Z0YR04I,AGFWV1U4CJXP5,3LG268AV38CKP4MYW6UNHQQT2Y7REC,2,2,193,1832,2kFemale/F504,2kFemale/F574,0,2,2kFemale/F504,2kFemale/F392,2kFemale/F574
1,3ZR9AIQJUCFGKS3Z3Q4XDS8Z0YR04I,AGFWV1U4CJXP5,3LG268AV38CKP4MYW6UNHQQT2Y7REC,3,2,194,1934,2kFemale/F195,2kFemale/F195,true,true,2kFemale/F195,2kFemale/F195,2kFemale/F181
1,3ZR9AIQJUCFGKS3Z3Q4XDS8Z0YR04I,AGFWV1U4CJXP5,3LG268AV38CKP4MYW6UNHQQT2Y7REC,2,2,195,3172,2kFemale/F41,2kFemale/F926,1,2,2kFemale/F919,2kFemale/F41,2kFemale/F926
1,3ZR9AIQJUCFGKS3Z3Q4XDS8Z0YR04I,AGFWV1U4CJXP5,3LG268AV38CKP4MYW6UNHQQT2Y7REC,2,2,196,4006,2kFemale/F874,2kFemale/F679,1,2,2kFemale/F884,2kFemale/F874,2kFemale/F679
1,3ZR9AIQJUCFGKS3Z3Q4XDS8Z0YR04I,AGFWV1U4CJXP5,3LG268AV38CKP4MYW6UNHQQT2Y7REC,2,2,197,2266,2kFemale/F853,2kFemale/F371,0,2,2kFemale/F853,2kFemale/F131,2kFemale/F371
1,3ZR9AIQJUCFGKS3Z3Q4XDS8Z0YR04I,AGFWV1U4CJXP5,3LG268AV38CKP4MYW6UNHQQT2Y7REC,2,2,198,1679,2kFemale/F747,2kFemale/F661,0,1,2kFemale/F747,2kFemale/F661,2kFemale/F10
1,3ZR9AIQJUCFGKS3Z3Q4XDS8Z0YR04I,AGFWV1U4CJXP5,3LG268AV38CKP4MYW6UNHQQT2Y7REC,2,2,199,2227,2kFemale/F879,2kFemale/F734,1,2,2kFemale/F804,2kFemale/F879,2kFemale/F734
1,3ZR9AIQJUCFGKS3Z3Q4XDS8Z0YR04I,AGFWV1U4CJXP5,3LG268AV38CKP4MYW6UNHQQT2Y7REC,2,2,200,2498,2kFemale/F557,2kFemale/F488,0,1,2kFemale/F557,2kFemale/F488,2kFemale/F79
1,3ZR9AIQJUCFGKS3Z3Q4XDS8Z0YR04I,AGFWV1U4CJXP5,3LG268AV38CKP4MYW6UNHQQT2Y7REC,2,2,201,2427,2kFemale/F316,2kFemale/F145,1,2,2kFemale/F246,2kFemale/F316,2kFemale/F145
1,3ZR9AIQJUCFGKS3Z3Q4XDS8Z0YR04I,AGFWV1U4CJXP5,3LG268AV38CKP4MYW6UNHQQT2Y7REC,2,2,202,3043,2kFemale/F214,2kFemale/F256,1,2,2kFemale/F696,2kFemale/F214,2kFemale/F256
1,3ZR9AIQJUCFGKS3Z3Q4XDS8Z0YR04I,AGFWV1U4CJXP5,3LG268AV38CKP4MYW6UNHQQT2Y7REC,2,2,203,2402,2kFemale/F226,2kFemale/F789,0,2,2kFemale/F226,2kFemale/F169,2kFemale/F789
1,3ZR9AIQJUCFGKS3Z3Q4XDS8Z0YR04I,AGFWV1U4CJXP5,3LG268AV38CKP4MYW6UNHQQT2Y7REC,2,2,204,2604,2kFemale/F395,2kFemale/F661,0,2,2kFemale/F395,2kFemale/F469,2kFemale/F661
1,3ZR9AIQJUCFGKS3Z3Q4XDS8Z0YR04I,AGFWV1U4CJXP5,3LG268AV38CKP4MYW6UNHQQT2Y7REC,2,2,205,2048,2kFemale/F434,2kFemale/F208,0,2,2kFemale/F434,2kFemale/F394,2kFemale/F208
1,3ZR9AIQJUCFGKS3Z3Q4XDS8Z0YR04I,AGFWV1U4CJXP5,3LG268AV38CKP4MYW6UNHQQT2Y7REC,2,2,206,2438,2kFemale/F31,2kFemale/F909,2,1,2kFemale/F705,2kFemale/F909,2kFemale/F31
1,3ZR9AIQJUCFGKS3Z3Q4XDS8Z0YR04I,AGFWV1U4CJXP5,3LG268AV38CKP4MYW6UNHQQT2Y7REC,2,2,207,2539,2kFemale/F560,2kFemale/F349,1,2,2kFemale/F133,2kFemale/F560,2kFemale/F349
1,3ZR9AIQJUCFGKS3Z3Q4XDS8Z0YR04I,AGFWV1U4CJXP5,3LG268AV38CKP4MYW6UNHQQT2Y7REC,2,2,208,1822,2kFemale/F220,2kFemale/F594,0,2,2kFemale/F220,2kFemale/F677,2kFemale/F594
1,3ZR9AIQJUCFGKS3Z3Q4XDS8Z0YR04I,AGFWV1U4CJXP5,3LG268AV38CKP4MYW6UNHQQT2Y7REC,2,2,209,2540,2kFemale/F600,2kFemale/F372,0,2,2kFemale/F600,2kFemale/F97,2kFemale/F372
1,3ZR9AIQJUCFGKS3Z3Q4XDS8Z0YR04I,AGFWV1U4CJXP5,3LG268AV38CKP4MYW6UNHQQT2Y7REC,2,2,210,1916,2kFemale/F642,2kFemale/F594,0,2,2kFemale/F642,2kFemale/F455,2kFemale/F594
1,3ZR9AIQJUCFGKS3Z3Q4XDS8Z0YR04I,AGFWV1U4CJXP5,3LG268AV38CKP4MYW6UNHQQT2Y7REC,2,2,211,3541,2kFemale/F298,2kFemale/F171,0,1,2kFemale/F298,2kFemale/F171,2kFemale/F323
1,3ZR9AIQJUCFGKS3Z3Q4XDS8Z0YR04I,AGFWV1U4CJXP5,3LG268AV38CKP4MYW6UNHQQT2Y7REC,2,2,212,3675,2kFemale/F816,2kFemale/F268,1,2,2kFemale/F682,2kFemale/F816,2kFemale/F268
1,3ZR9AIQJUCFGKS3Z3Q4XDS8Z0YR04I,AGFWV1U4CJXP5,3LG268AV38CKP4MYW6UNHQQT2Y7REC,2,2,213,2918,2kFemale/F327,2kFemale/F891,1,2,2kFemale/F590,2kFemale/F327,2kFemale/F891
1,3ZR9AIQJUCFGKS3Z3Q4XDS8Z0YR04I,AGFWV1U4CJXP5,3LG268AV38CKP4MYW6UNHQQT2Y7REC,2,2,214,3322,2kFemale/F119,2kFemale/F696,0,1,2kFemale/F119,2kFemale/F696,2kFemale/F615
1,3ZR9AIQJUCFGKS3Z3Q4XDS8Z0YR04I,AGFWV1U4CJXP5,3LG268AV38CKP4MYW6UNHQQT2Y7REC,2,2,215,2538,2kFemale/F486,2kFemale/F201,1,0,2kFemale/F201,2kFemale/F486,2kFemale/F862
1,3ZR9AIQJUCFGKS3Z3Q4XDS8Z0YR04I,AGFWV1U4CJXP5,3LG268AV38CKP4MYW6UNHQQT2Y7REC,2,2,216,2184,2kFemale/F120,2kFemale/F295,0,1,2kFemale/F120,2kFemale/F295,2kFemale/F691
1,3ZR9AIQJUCFGKS3Z3Q4XDS8Z0YR04I,AGFWV1U4CJXP5,3LG268AV38CKP4MYW6UNHQQT2Y7REC,2,2,217,3118,2kFemale/F428,2kFemale/F836,2,0,2kFemale/F836,2kFemale/F337,2kFemale/F428
1,3ZR9AIQJUCFGKS3Z3Q4XDS8Z0YR04I,AGFWV1U4CJXP5,3LG268AV38CKP4MYW6UNHQQT2Y7REC,2,2,218,2232,2kFemale/F478,2kFemale/F53,1,0,2kFemale/F53,2kFemale/F478,2kFemale/F411
2,338JKRMM2756XHPCAZL9WNTGEPPAH5,A24N00FSJO3DZP,3LG268AV38CKP4MYW6UNHQQT2Y7REC,1,1,5,15054,2kFemale/F16,2kFemale/F19,2,1,2kFemale/F18,2kFemale/F19,2kFemale/F16
2,338JKRMM2756XHPCAZL9WNTGEPPAH5,A24N00FSJO3DZP,3LG268AV38CKP4MYW6UNHQQT2Y7REC,1,1,11,6698,2kFemale/F17,2kFemale/F18,2,0,2kFemale/F18,2kFemale/F10,2kFemale/F17
2,338JKRMM2756XHPCAZL9WNTGEPPAH5,A24N00FSJO3DZP,3LG268AV38CKP4MYW6UNHQQT2Y7REC,1,1,12,7565,2kFemale/F12,2kFemale/F16,1,0,2kFemale/F16,2kFemale/F12,2kFemale/F20
2,338JKRMM2756XHPCAZL9WNTGEPPAH5,A24N00FSJO3DZP,3LG268AV38CKP4MYW6UNHQQT2Y7REC,2,4,14,21996,2kFemale/F210,2kFemale/F210,http://52.23.229.132/2kFemale/F919.jpg,2,0,2kFemale/F919,2kFemale/F466,2kFemale/F210
2,338JKRMM2756XHPCAZL9WNTGEPPAH5,A24N00FSJO3DZP,3LG268AV38CKP4MYW6UNHQQT2Y7REC,2,4,15,9244,2kFemale/F732,2kFemale/F91,2,0,2kFemale/F91,2kFemale/F308,2kFemale/F732
2,338JKRMM2756XHPCAZL9WNTGEPPAH5,A24N00FSJO3DZP,3LG268AV38CKP4MYW6UNHQQT2Y7REC,2,4,16,17773,2kFemale/F297,2kFemale/F68,1,2,2kFemale/F515,2kFemale/F297,2kFemale/F68
2,338JKRMM2756XHPCAZL9WNTGEPPAH5,A24N00FSJO3DZP,3LG268AV38CKP4MYW6UNHQQT2Y7REC,2,4,17,5307,2kFemale/F441,2kFemale/F89,2,1,2kFemale/F174,2kFemale/F89,2kFemale/F441
2,338JKRMM2756XHPCAZL9WNTGEPPAH5,A24N00FSJO3DZP,3LG268AV38CKP4MYW6UNHQQT2Y7REC,2,4,18,5006,2kFemale/F222,2kFemale/F578,0,2,2kFemale/F222,2kFemale/F23,2kFemale/F578
2,338JKRMM2756XHPCAZL9WNTGEPPAH5,A24N00FSJO3DZP,3LG268AV38CKP4MYW6UNHQQT2Y7REC,2,4,19,3375,2kFemale/F530,2kFemale/F772,2,1,2kFemale/F793,2kFemale/F772,2kFemale/F530
2,338JKRMM2756XHPCAZL9WNTGEPPAH5,A24N00FSJO3DZP,3LG268AV38CKP4MYW6UNHQQT2Y7REC,2,4,20,8665,2kFemale/F612,2kFemale/F872,2,1,2kFemale/F9,2kFemale/F872,2kFemale/F612
2,338JKRMM2756XHPCAZL9WNTGEPPAH5,A24N00FSJO3DZP,3LG268AV38CKP4MYW6UNHQQT2Y7REC,2,4,21,13415,2kFemale/F34,2kFemale/F556,2,0,2kFemale/F556,2kFemale/F814,2kFemale/F34
2,338JKRMM2756XHPCAZL9WNTGEPPAH5,A24N00FSJO3DZP,3LG268AV38CKP4MYW6UNHQQT2Y7REC,2,4,22,5351,2kFemale/F223,2kFemale/F648,2,1,2kFemale/F251,2kFemale/F648,2kFemale/F223
2,338JKRMM2756XHPCAZL9WNTGEPPAH5,A24N00FSJO3DZP,3LG268AV38CKP4MYW6UNHQQT2Y7REC,2,4,23,4888,2kFemale/F179,2kFemale/F159,2,1,2kFemale/F582,2kFemale/F159,2kFemale/F179
2,338JKRMM2756XHPCAZL9WNTGEPPAH5,A24N00FSJO3DZP,3LG268AV38CKP4MYW6UNHQQT2Y7REC,2,4,24,5663,2kFemale/F295,2kFemale/F498,0,1,2kFemale/F295,2kFemale/F498,2kFemale/F310
2,338JKRMM2756XHPCAZL9WNTGEPPAH5,A24N00FSJO3DZP,3LG268AV38CKP4MYW6UNHQQT2Y7REC,2,4,25,3584,2kFemale/F171,2kFemale/F375,1,0,2kFemale/F375,2kFemale/F171,2kFemale/F603
2,338JKRMM2756XHPCAZL9WNTGEPPAH5,A24N00FSJO3DZP,3LG268AV38CKP4MYW6UNHQQT2Y7REC,2,4,26,3678,2kFemale/F946,2kFemale/F719,0,1,2kFemale/F946,2kFemale/F719,2kFemale/F933
2,338JKRMM2756XHPCAZL9WNTGEPPAH5,A24N00FSJO3DZP,3LG268AV38CKP4MYW6UNHQQT2Y7REC,2,4,27,3012,2kFemale/F399,2kFemale/F330,2,1,2kFemale/F719,2kFemale/F330,2kFemale/F399
2,338JKRMM2756XHPCAZL9WNTGEPPAH5,A24N00FSJO3DZP,3LG268AV38CKP4MYW6UNHQQT2Y7REC,2,4,28,3654,2kFemale/F389,2kFemale/F844,1,0,2kFemale/F844,2kFemale/F389,2kFemale/F35
2,338JKRMM2756XHPCAZL9WNTGEPPAH5,A24N00FSJO3DZP,3LG268AV38CKP4MYW6UNHQQT2Y7REC,2,4,29,3986,2kFemale/F29,2kFemale/F2,1,0,2kFemale/F2,2kFemale/F29,2kFemale/F199
2,338JKRMM2756XHPCAZL9WNTGEPPAH5,A24N00FSJO3DZP,3LG268AV38CKP4MYW6UNHQQT2Y7REC,2,4,30,8137,2kFemale/F865,2kFemale/F128,2,0,2kFemale/F128,2kFemale/F653,2kFemale/F865
2,338JKRMM2756XHPCAZL9WNTGEPPAH5,A24N00FSJO3DZP,3LG268AV38CKP4MYW6UNHQQT2Y7REC,2,4,31,5963,2kFemale/F383,2kFemale/F368,0,2,2kFemale/F383,2kFemale/F387,2kFemale/F368
2,338JKRMM2756XHPCAZL9WNTGEPPAH5,A24N00FSJO3DZP,3LG268AV38CKP4MYW6UNHQQT2Y7REC,3,4,32,2828,2kFemale/F141,2kFemale/F141,true,true,2kFemale/F141,2kFemale/F141,2kFemale/F199
2,338JKRMM2756XHPCAZL9WNTGEPPAH5,A24N00FSJO3DZP,3LG268AV38CKP4MYW6UNHQQT2Y7REC,2,4,33,5597,2kFemale/F1,2kFemale/F515,0,1,2kFemale/F1,2kFemale/F515,2kFemale/F198
2,338JKRMM2756XHPCAZL9WNTGEPPAH5,A24N00FSJO3DZP,3LG268AV38CKP4MYW6UNHQQT2Y7REC,2,4,34,6622,2kFemale/F705,2kFemale/F659,1,2,2kFemale/F224,2kFemale/F705,2kFemale/F659
2,338JKRMM2756XHPCAZL9WNTGEPPAH5,A24N00FSJO3DZP,3LG268AV38CKP4MYW6UNHQQT2Y7REC,2,4,35,9234,2kFemale/F660,2kFemale/F932,0,1,2kFemale/F660,2kFemale/F932,2kFemale/F270
2,338JKRMM2756XHPCAZL9WNTGEPPAH5,A24N00FSJO3DZP,3LG268AV38CKP4MYW6UNHQQT2Y7REC,2,4,36,8385,2kFemale/F681,2kFemale/F875,2,0,2kFemale/F875,2kFemale/F154,2kFemale/F681
2,338JKRMM2756XHPCAZL9WNTGEPPAH5,A24N00FSJO3DZP,3LG268AV38CKP4MYW6UNHQQT2Y7REC,2,4,37,3734,2kFemale/F792,2kFemale/F708,1,0,2kFemale/F708,2kFemale/F792,2kFemale/F149
2,338JKRMM2756XHPCAZL9WNTGEPPAH5,A24N00FSJO3DZP,3LG268AV38CKP4MYW6UNHQQT2Y7REC,2,4,38,7562,2kFemale/F216,2kFemale/F725,0,2,2kFemale/F216,2kFemale/F512,2kFemale/F725
2,338JKRMM2756XHPCAZL9WNTGEPPAH5,A24N00FSJO3DZP,3LG268AV38CKP4MYW6UNHQQT2Y7REC,2,4,39,3755,2kFemale/F780,2kFemale/F149,1,0,2kFemale/F149,2kFemale/F780,2kFemale/F595
2,338JKRMM2756XHPCAZL9WNTGEPPAH5,A24N00FSJO3DZP,3LG268AV38CKP4MYW6UNHQQT2Y7REC,2,4,40,6000,2kFemale/F816,2kFemale/F449,1,0,2kFemale/F449,2kFemale/F816,2kFemale/F42
2,338JKRMM2756XHPCAZL9WNTGEPPAH5,A24N00FSJO3DZP,3LG268AV38CKP4MYW6UNHQQT2Y7REC,2,4,41,7501,2kFemale/F841,2kFemale/F388,2,1,2kFemale/F106,2kFemale/F388,2kFemale/F841
2,338JKRMM2756XHPCAZL9WNTGEPPAH5,A24N00FSJO3DZP,3LG268AV38CKP4MYW6UNHQQT2Y7REC,2,4,42,11696,2kFemale/F722,2kFemale/F816,0,2,2kFemale/F722,2kFemale/F574,2kFemale/F816
2,338JKRMM2756XHPCAZL9WNTGEPPAH5,A24N00FSJO3DZP,3LG268AV38CKP4MYW6UNHQQT2Y7REC,2,4,43,10341,2kFemale/F786,2kFemale/F789,0,1,2kFemale/F786,2kFemale/F789,2kFemale/F279
2,338JKRMM2756XHPCAZL9WNTGEPPAH5,A24N00FSJO3DZP,3LG268AV38CKP4MYW6UNHQQT2Y7REC,2,4,44,8090,2kFemale/F9,2kFemale/F434,2,0,2kFemale/F434,2kFemale/F122,2kFemale/F9
2,338JKRMM2756XHPCAZL9WNTGEPPAH5,A24N00FSJO3DZP,3LG268AV38CKP4MYW6UNHQQT2Y7REC,2,4,45,4186,2kFemale/F417,2kFemale/F416,0,1,2kFemale/F417,2kFemale/F416,2kFemale/F47
2,338JKRMM2756XHPCAZL9WNTGEPPAH5,A24N00FSJO3DZP,3LG268AV38CKP4MYW6UNHQQT2Y7REC,2,4,46,7641,2kFemale/F887,2kFemale/F589,2,1,2kFemale/F436,2kFemale/F589,2kFemale/F887
2,338JKRMM2756XHPCAZL9WNTGEPPAH5,A24N00FSJO3DZP,3LG268AV38CKP4MYW6UNHQQT2Y7REC,2,4,47,7638,2kFemale/F48,2kFemale/F565,0,2,2kFemale/F48,2kFemale/F87,2kFemale/F565
2,338JKRMM2756XHPCAZL9WNTGEPPAH5,A24N00FSJO3DZP,3LG268AV38CKP4MYW6UNHQQT2Y7REC,2,4,48,7171,2kFemale/F523,2kFemale/F352,0,1,2kFemale/F523,2kFemale/F352,2kFemale/F199
2,338JKRMM2756XHPCAZL9WNTGEPPAH5,A24N00FSJO3DZP,3LG268AV38CKP4MYW6UNHQQT2Y7REC,2,4,49,9203,2kFemale/F554,2kFemale/F853,2,1,2kFemale/F796,2kFemale/F853,2kFemale/F554
2,338JKRMM2756XHPCAZL9WNTGEPPAH5,A24N00FSJO3DZP,3LG268AV38CKP4MYW6UNHQQT2Y7REC,2,4,50,5877,2kFemale/F64,2kFemale/F704,2,0,2kFemale/F704,2kFemale/F767,2kFemale/F64
2,338JKRMM2756XHPCAZL9WNTGEPPAH5,A24N00FSJO3DZP,3LG268AV38CKP4MYW6UNHQQT2Y7REC,2,4,51,6468,2kFemale/F816,2kFemale/F801,2,1,2kFemale/F230,2kFemale/F801,2kFemale/F816
2,338JKRMM2756XHPCAZL9WNTGEPPAH5,A24N00FSJO3DZP,3LG268AV38CKP4MYW6UNHQQT2Y7REC,2,4,52,4583,2kFemale/F513,2kFemale/F435,2,0,2kFemale/F435,2kFemale/F367,2kFemale/F513
2,338JKRMM2756XHPCAZL9WNTGEPPAH5,A24N00FSJO3DZP,3LG268AV38CKP4MYW6UNHQQT2Y7REC,2,4,53,6179,2kFemale/F693,2kFemale/F338,0,1,2kFemale/F693,2kFemale/F338,2kFemale/F743
2,338JKRMM2756XHPCAZL9WNTGEPPAH5,A24N00FSJO3DZP,3LG268AV38CKP4MYW6UNHQQT2Y7REC,2,4,54,9083,2kFemale/F583,2kFemale/F857,0,1,2kFemale/F583,2kFemale/F857,2kFemale/F184
2,338JKRMM2756XHPCAZL9WNTGEPPAH5,A24N00FSJO3DZP,3LG268AV38CKP4MYW6UNHQQT2Y7REC,2,4,55,8996,2kFemale/F440,2kFemale/F608,1,2,2kFemale/F332,2kFemale/F440,2kFemale/F608
2,338JKRMM2756XHPCAZL9WNTGEPPAH5,A24N00FSJO3DZP,3LG268AV38CKP4MYW6UNHQQT2Y7REC,2,4,56,10975,2kFemale/F118,2kFemale/F421,2,0,2kFemale/F421,2kFemale/F911,2kFemale/F118
2,338JKRMM2756XHPCAZL9WNTGEPPAH5,A24N00FSJO3DZP,3LG268AV38CKP4MYW6UNHQQT2Y7REC,2,4,57,20569,2kFemale/F390,2kFemale/F885,2,1,2kFemale/F942,2kFemale/F885,2kFemale/F390
2,338JKRMM2756XHPCAZL9WNTGEPPAH5,A24N00FSJO3DZP,3LG268AV38CKP4MYW6UNHQQT2Y7REC,2,4,58,2858,2kFemale/F712,2kFemale/F148,0,1,2kFemale/F712,2kFemale/F148,2kFemale/F137
2,338JKRMM2756XHPCAZL9WNTGEPPAH5,A24N00FSJO3DZP,3LG268AV38CKP4MYW6UNHQQT2Y7REC,2,4,59,2748,2kFemale/F841,2kFemale/F413,2,1,2kFemale/F551,2kFemale/F413,2kFemale/F841
2,338JKRMM2756XHPCAZL9WNTGEPPAH5,A24N00FSJO3DZP,3LG268AV38CKP4MYW6UNHQQT2Y7REC,2,4,60,4241,2kFemale/F764,2kFemale/F595,2,0,2kFemale/F595,2kFemale/F313,2kFemale/F764
2,338JKRMM2756XHPCAZL9WNTGEPPAH5,A24N00FSJO3DZP,3LG268AV38CKP4MYW6UNHQQT2Y7REC,2,4,61,6771,2kFemale/F907,2kFemale/F474,0,1,2kFemale/F907,2kFemale/F474,2kFemale/F719
2,338JKRMM2756XHPCAZL9WNTGEPPAH5,A24N00FSJO3DZP,3LG268AV38CKP4MYW6UNHQQT2Y7REC,2,4,62,5634,2kFemale/F309,2kFemale/F243,2,1,2kFemale/F578,2kFemale/F243,2kFemale/F309
2,338JKRMM2756XHPCAZL9WNTGEPPAH5,A24N00FSJO3DZP,3LG268AV38CKP4MYW6UNHQQT2Y7REC,2,4,63,6275,2kFemale/F121,2kFemale/F953,2,0,2kFemale/F953,2kFemale/F934,2kFemale/F121
2,338JKRMM2756XHPCAZL9WNTGEPPAH5,A24N00FSJO3DZP,3LG268AV38CKP4MYW6UNHQQT2Y7REC,2,4,64,6259,2kFemale/F224,2kFemale/F504,0,1,2kFemale/F224,2kFemale/F504,2kFemale/F49
2,338JKRMM2756XHPCAZL9WNTGEPPAH5,A24N00FSJO3DZP,3LG268AV38CKP4MYW6UNHQQT2Y7REC,2,4,65,4440,2kFemale/F945,2kFemale/F377,1,0,2kFemale/F377,2kFemale/F945,2kFemale/F383
2,338JKRMM2756XHPCAZL9WNTGEPPAH5,A24N00FSJO3DZP,3LG268AV38CKP4MYW6UNHQQT2Y7REC,2,4,66,4358,2kFemale/F547,2kFemale/F755,0,1,2kFemale/F547,2kFemale/F755,2kFemale/F313
2,338JKRMM2756XHPCAZL9WNTGEPPAH5,A24N00FSJO3DZP,3LG268AV38CKP4MYW6UNHQQT2Y7REC,2,4,67,4523,2kFemale/F526,2kFemale/F323,2,0,2kFemale/F323,2kFemale/F793,2kFemale/F526
2,338JKRMM2756XHPCAZL9WNTGEPPAH5,A24N00FSJO3DZP,3LG268AV38CKP4MYW6UNHQQT2Y7REC,2,4,68,7242,2kFemale/F160,2kFemale/F479,0,1,2kFemale/F160,2kFemale/F479,2kFemale/F951
2,338JKRMM2756XHPCAZL9WNTGEPPAH5,A24N00FSJO3DZP,3LG268AV38CKP4MYW6UNHQQT2Y7REC,2,4,69,9346,2kFemale/F798,2kFemale/F156,2,1,2kFemale/F565,2kFemale/F156,2kFemale/F798
2,338JKRMM2756XHPCAZL9WNTGEPPAH5,A24N00FSJO3DZP,3LG268AV38CKP4MYW6UNHQQT2Y7REC,2,4,70,5362,2kFemale/F940,2kFemale/F761,2,1,2kFemale/F322,2kFemale/F761,2kFemale/F940
2,338JKRMM2756XHPCAZL9WNTGEPPAH5,A24N00FSJO3DZP,3LG268AV38CKP4MYW6UNHQQT2Y7REC,2,4,71,5518,2kFemale/F274,2kFemale/F883,0,1,2kFemale/F274,2kFemale/F883,2kFemale/F49
2,338JKRMM2756XHPCAZL9WNTGEPPAH5,A24N00FSJO3DZP,3LG268AV38CKP4MYW6UNHQQT2Y7REC,2,4,72,8316,2kFemale/F863,2kFemale/F842,0,1,2kFemale/F863,2kFemale/F842,2kFemale/F418
2,338JKRMM2756XHPCAZL9WNTGEPPAH5,A24N00FSJO3DZP,3LG268AV38CKP4MYW6UNHQQT2Y7REC,2,4,73,4330,2kFemale/F711,2kFemale/F760,1,0,2kFemale/F760,2kFemale/F711,2kFemale/F120
2,338JKRMM2756XHPCAZL9WNTGEPPAH5,A24N00FSJO3DZP,3LG268AV38CKP4MYW6UNHQQT2Y7REC,2,4,74,8478,2kFemale/F890,2kFemale/F686,0,1,2kFemale/F890,2kFemale/F686,2kFemale/F461
2,338JKRMM2756XHPCAZL9WNTGEPPAH5,A24N00FSJO3DZP,3LG268AV38CKP4MYW6UNHQQT2Y7REC,2,4,75,3503,2kFemale/F477,2kFemale/F497,0,1,2kFemale/F477,2kFemale/F497,2kFemale/F86
2,338JKRMM2756XHPCAZL9WNTGEPPAH5,A24N00FSJO3DZP,3LG268AV38CKP4MYW6UNHQQT2Y7REC,2,4,76,8592,2kFemale/F395,2kFemale/F395,http://52.23.229.132/2kFemale/F784.jpg,2,0,2kFemale/F784,2kFemale/F24,2kFemale/F395
2,338JKRMM2756XHPCAZL9WNTGEPPAH5,A24N00FSJO3DZP,3LG268AV38CKP4MYW6UNHQQT2Y7REC,2,4,77,10375,2kFemale/F896,2kFemale/F6,1,2,2kFemale/F418,2kFemale/F896,2kFemale/F6
2,338JKRMM2756XHPCAZL9WNTGEPPAH5,A24N00FSJO3DZP,3LG268AV38CKP4MYW6UNHQQT2Y7REC,2,4,78,3835,2kFemale/F791,2kFemale/F277,0,1,2kFemale/F791,2kFemale/F277,2kFemale/F383
2,338JKRMM2756XHPCAZL9WNTGEPPAH5,A24N00FSJO3DZP,3LG268AV38CKP4MYW6UNHQQT2Y7REC,2,4,79,6775,2kFemale/F819,2kFemale/F614,1,0,2kFemale/F614,2kFemale/F819,2kFemale/F383
2,338JKRMM2756XHPCAZL9WNTGEPPAH5,A24N00FSJO3DZP,3LG268AV38CKP4MYW6UNHQQT2Y7REC,2,4,80,6772,2kFemale/F651,2kFemale/F915,1,2,2kFemale/F893,2kFemale/F651,2kFemale/F915
2,338JKRMM2756XHPCAZL9WNTGEPPAH5,A24N00FSJO3DZP,3LG268AV38CKP4MYW6UNHQQT2Y7REC,2,4,81,12204,2kFemale/F380,2kFemale/F238,2,0,2kFemale/F238,2kFemale/F453,2kFemale/F380
2,338JKRMM2756XHPCAZL9WNTGEPPAH5,A24N00FSJO3DZP,3LG268AV38CKP4MYW6UNHQQT2Y7REC,2,4,82,14709,2kFemale/F425,2kFemale/F803,1,2,2kFemale/F249,2kFemale/F425,2kFemale/F803
2,338JKRMM2756XHPCAZL9WNTGEPPAH5,A24N00FSJO3DZP,3LG268AV38CKP4MYW6UNHQQT2Y7REC,2,4,83,6645,2kFemale/F590,2kFemale/F745,2,0,2kFemale/F745,2kFemale/F142,2kFemale/F590
2,338JKRMM2756XHPCAZL9WNTGEPPAH5,A24N00FSJO3DZP,3LG268AV38CKP4MYW6UNHQQT2Y7REC,2,4,84,10185,2kFemale/F187,2kFemale/F290,0,1,2kFemale/F187,2kFemale/F290,2kFemale/F460
2,338JKRMM2756XHPCAZL9WNTGEPPAH5,A24N00FSJO3DZP,3LG268AV38CKP4MYW6UNHQQT2Y7REC,2,4,85,6502,2kFemale/F947,2kFemale/F628,2,0,2kFemale/F628,2kFemale/F859,2kFemale/F947
2,338JKRMM2756XHPCAZL9WNTGEPPAH5,A24N00FSJO3DZP,3LG268AV38CKP4MYW6UNHQQT2Y7REC,2,4,86,10798,2kFemale/F533,2kFemale/F938,2,1,2kFemale/F603,2kFemale/F938,2kFemale/F533
2,338JKRMM2756XHPCAZL9WNTGEPPAH5,A24N00FSJO3DZP,3LG268AV38CKP4MYW6UNHQQT2Y7REC,2,4,87,5692,2kFemale/F248,2kFemale/F916,0,1,2kFemale/F248,2kFemale/F916,2kFemale/F514
2,338JKRMM2756XHPCAZL9WNTGEPPAH5,A24N00FSJO3DZP,3LG268AV38CKP4MYW6UNHQQT2Y7REC,2,4,88,6361,2kFemale/F667,2kFemale/F410,2,0,2kFemale/F410,2kFemale/F545,2kFemale/F667
2,338JKRMM2756XHPCAZL9WNTGEPPAH5,A24N00FSJO3DZP,3LG268AV38CKP4MYW6UNHQQT2Y7REC,2,4,89,8528,2kFemale/F338,2kFemale/F801,2,1,2kFemale/F783,2kFemale/F801,2kFemale/F338
2,338JKRMM2756XHPCAZL9WNTGEPPAH5,A24N00FSJO3DZP,3LG268AV38CKP4MYW6UNHQQT2Y7REC,3,4,90,2139,2kFemale/F187,2kFemale/F187,true,true,2kFemale/F187,2kFemale/F187,2kFemale/F200
2,338JKRMM2756XHPCAZL9WNTGEPPAH5,A24N00FSJO3DZP,3LG268AV38CKP4MYW6UNHQQT2Y7REC,2,4,91,9607,2kFemale/F593,2kFemale/F331,2,1,2kFemale/F521,2kFemale/F331,2kFemale/F593
2,338JKRMM2756XHPCAZL9WNTGEPPAH5,A24N00FSJO3DZP,3LG268AV38CKP4MYW6UNHQQT2Y7REC,2,4,92,8835,2kFemale/F915,2kFemale/F540,2,1,2kFemale/F590,2kFemale/F540,2kFemale/F915
2,338JKRMM2756XHPCAZL9WNTGEPPAH5,A24N00FSJO3DZP,3LG268AV38CKP4MYW6UNHQQT2Y7REC,2,4,93,7537,2kFemale/F925,2kFemale/F358,2,0,2kFemale/F358,2kFemale/F927,2kFemale/F925
2,338JKRMM2756XHPCAZL9WNTGEPPAH5,A24N00FSJO3DZP,3LG268AV38CKP4MYW6UNHQQT2Y7REC,2,4,94,6848,2kFemale/F850,2kFemale/F231,1,2,2kFemale/F710,2kFemale/F850,2kFemale/F231
2,338JKRMM2756XHPCAZL9WNTGEPPAH5,A24N00FSJO3DZP,3LG268AV38CKP4MYW6UNHQQT2Y7REC,2,4,95,4675,2kFemale/F100,2kFemale/F763,2,1,2kFemale/F572,2kFemale/F763,2kFemale/F100
2,338JKRMM2756XHPCAZL9WNTGEPPAH5,A24N00FSJO3DZP,3LG268AV38CKP4MYW6UNHQQT2Y7REC,2,4,96,5189,2kFemale/F708,2kFemale/F722,0,1,2kFemale/F708,2kFemale/F722,2kFemale/F371
2,338JKRMM2756XHPCAZL9WNTGEPPAH5,A24N00FSJO3DZP,3LG268AV38CKP4MYW6UNHQQT2Y7REC,2,4,97,6139,2kFemale/F350,2kFemale/F744,2,1,2kFemale/F698,2kFemale/F744,2kFemale/F350
2,338JKRMM2756XHPCAZL9WNTGEPPAH5,A24N00FSJO3DZP,3LG268AV38CKP4MYW6UNHQQT2Y7REC,2,4,98,5781,2kFemale/F333,2kFemale/F124,2,0,2kFemale/F124,2kFemale/F215,2kFemale/F333
2,338JKRMM2756XHPCAZL9WNTGEPPAH5,A24N00FSJO3DZP,3LG268AV38CKP4MYW6UNHQQT2Y7REC,2,4,99,8153,2kFemale/F643,2kFemale/F195,2,0,2kFemale/F195,2kFemale/F788,2kFemale/F643
2,338JKRMM2756XHPCAZL9WNTGEPPAH5,A24N00FSJO3DZP,3LG268AV38CKP4MYW6UNHQQT2Y7REC,2,4,100,4185,2kFemale/F498,2kFemale/F631,2,1,2kFemale/F712,2kFemale/F631,2kFemale/F498
2,338JKRMM2756XHPCAZL9WNTGEPPAH5,A24N00FSJO3DZP,3LG268AV38CKP4MYW6UNHQQT2Y7REC,2,4,101,4881,2kFemale/F339,2kFemale/F45,0,1,2kFemale/F339,2kFemale/F45,2kFemale/F204
2,338JKRMM2756XHPCAZL9WNTGEPPAH5,A24N00FSJO3DZP,3LG268AV38CKP4MYW6UNHQQT2Y7REC,2,4,102,4870,2kFemale/F222,2kFemale/F582,2,0,2kFemale/F582,2kFemale/F763,2kFemale/F222
2,338JKRMM2756XHPCAZL9WNTGEPPAH5,A24N00FSJO3DZP,3LG268AV38CKP4MYW6UNHQQT2Y7REC,2,4,103,2953,2kFemale/F311,2kFemale/F209,1,0,2kFemale/F209,2kFemale/F311,2kFemale/F92
2,338JKRMM2756XHPCAZL9WNTGEPPAH5,A24N00FSJO3DZP,3LG268AV38CKP4MYW6UNHQQT2Y7REC,2,4,104,12448,2kFemale/F219,2kFemale/F318,2,1,2kFemale/F380,2kFemale/F318,2kFemale/F219
2,338JKRMM2756XHPCAZL9WNTGEPPAH5,A24N00FSJO3DZP,3LG268AV38CKP4MYW6UNHQQT2Y7REC,2,4,105,4535,2kFemale/F545,2kFemale/F410,2,0,2kFemale/F410,2kFemale/F911,2kFemale/F545
2,338JKRMM2756XHPCAZL9WNTGEPPAH5,A24N00FSJO3DZP,3LG268AV38CKP4MYW6UNHQQT2Y7REC,2,4,106,5470,2kFemale/F786,2kFemale/F727,2,1,2kFemale/F889,2kFemale/F727,2kFemale/F786
2,338JKRMM2756XHPCAZL9WNTGEPPAH5,A24N00FSJO3DZP,3LG268AV38CKP4MYW6UNHQQT2Y7REC,2,4,107,9106,2kFemale/F556,2kFemale/F213,2,0,2kFemale/F213,2kFemale/F298,2kFemale/F556
2,338JKRMM2756XHPCAZL9WNTGEPPAH5,A24N00FSJO3DZP,3LG268AV38CKP4MYW6UNHQQT2Y7REC,2,4,108,5575,2kFemale/F668,2kFemale/F226,2,1,2kFemale/F152,2kFemale/F226,2kFemale/F668
2,338JKRMM2756XHPCAZL9WNTGEPPAH5,A24N00FSJO3DZP,3LG268AV38CKP4MYW6UNHQQT2Y7REC,2,4,109,6024,2kFemale/F609,2kFemale/F846,0,1,2kFemale/F609,2kFemale/F846,2kFemale/F189
2,338JKRMM2756XHPCAZL9WNTGEPPAH5,A24N00FSJO3DZP,3LG268AV38CKP4MYW6UNHQQT2Y7REC,2,4,110,5194,2kFemale/F517,2kFemale/F953,2,1,2kFemale/F713,2kFemale/F953,2kFemale/F517
2,338JKRMM2756XHPCAZL9WNTGEPPAH5,A24N00FSJO3DZP,3LG268AV38CKP4MYW6UNHQQT2Y7REC,2,4,111,3029,2kFemale/F592,2kFemale/F264,2,1,2kFemale/F810,2kFemale/F264,2kFemale/F592
2,338JKRMM2756XHPCAZL9WNTGEPPAH5,A24N00FSJO3DZP,3LG268AV38CKP4MYW6UNHQQT2Y7REC,2,4,112,14132,2kFemale/F340,2kFemale/F850,2,1,2kFemale/F913,2kFemale/F850,2kFemale/F340
2,338JKRMM2756XHPCAZL9WNTGEPPAH5,A24N00FSJO3DZP,3LG268AV38CKP4MYW6UNHQQT2Y7REC,2,4,113,4062,2kFemale/F82,2kFemale/F918,2,1,2kFemale/F561,2kFemale/F918,2kFemale/F82
2,338JKRMM2756XHPCAZL9WNTGEPPAH5,A24N00FSJO3DZP,3LG268AV38CKP4MYW6UNHQQT2Y7REC,2,4,114,13283,2kFemale/F35,2kFemale/F104,2,1,2kFemale/F623,2kFemale/F104,2kFemale/F35
2,338JKRMM2756XHPCAZL9WNTGEPPAH5,A24N00FSJO3DZP,3LG268AV38CKP4MYW6UNHQQT2Y7REC,2,4,115,8368,2kFemale/F943,2kFemale/F586,2,1,2kFemale/F822,2kFemale/F586,2kFemale/F943
2,338JKRMM2756XHPCAZL9WNTGEPPAH5,A24N00FSJO3DZP,3LG268AV38CKP4MYW6UNHQQT2Y7REC,2,4,117,7366,2kFemale/F717,2kFemale/F351,0,1,2kFemale/F717,2kFemale/F351,2kFemale/F896
2,338JKRMM2756XHPCAZL9WNTGEPPAH5,A24N00FSJO3DZP,3LG268AV38CKP4MYW6UNHQQT2Y7REC,3,4,118,2106,2kFemale/F196,2kFemale/F196,true,true,2kFemale/F196,2kFemale/F196,2kFemale/F142
2,338JKRMM2756XHPCAZL9WNTGEPPAH5,A24N00FSJO3DZP,3LG268AV38CKP4MYW6UNHQQT2Y7REC,2,4,119,6815,2kFemale/F295,2kFemale/F928,2,0,2kFemale/F928,2kFemale/F348,2kFemale/F295
2,338JKRMM2756XHPCAZL9WNTGEPPAH5,A24N00FSJO3DZP,3LG268AV38CKP4MYW6UNHQQT2Y7REC,2,4,120,3384,2kFemale/F881,2kFemale/F281,2,0,2kFemale/F281,2kFemale/F172,2kFemale/F881
2,338JKRMM2756XHPCAZL9WNTGEPPAH5,A24N00FSJO3DZP,3LG268AV38CKP4MYW6UNHQQT2Y7REC,2,4,121,7188,2kFemale/F668,2kFemale/F50,0,2,2kFemale/F668,2kFemale/F831,2kFemale/F50
2,338JKRMM2756XHPCAZL9WNTGEPPAH5,A24N00FSJO3DZP,3LG268AV38CKP4MYW6UNHQQT2Y7REC,2,4,122,33933,2kFemale/F571,2kFemale/F553,2,0,2kFemale/F553,2kFemale/F575,2kFemale/F571
2,338JKRMM2756XHPCAZL9WNTGEPPAH5,A24N00FSJO3DZP,3LG268AV38CKP4MYW6UNHQQT2Y7REC,2,4,123,6853,2kFemale/F496,2kFemale/F909,0,1,2kFemale/F496,2kFemale/F909,2kFemale/F70
2,338JKRMM2756XHPCAZL9WNTGEPPAH5,A24N00FSJO3DZP,3LG268AV38CKP4MYW6UNHQQT2Y7REC,2,4,124,4549,2kFemale/F692,2kFemale/F620,2,1,2kFemale/F514,2kFemale/F620,2kFemale/F692
2,338JKRMM2756XHPCAZL9WNTGEPPAH5,A24N00FSJO3DZP,3LG268AV38CKP4MYW6UNHQQT2Y7REC,2,4,125,7331,2kFemale/F55,2kFemale/F600,0,1,2kFemale/F55,2kFemale/F600,2kFemale/F758
2,338JKRMM2756XHPCAZL9WNTGEPPAH5,A24N00FSJO3DZP,3LG268AV38CKP4MYW6UNHQQT2Y7REC,2,4,126,4620,2kFemale/F430,2kFemale/F525,0,1,2kFemale/F430,2kFemale/F525,2kFemale/F766
2,338JKRMM2756XHPCAZL9WNTGEPPAH5,A24N00FSJO3DZP,3LG268AV38CKP4MYW6UNHQQT2Y7REC,2,4,127,3661,2kFemale/F556,2kFemale/F665,1,2,2kFemale/F587,2kFemale/F556,2kFemale/F665
2,338JKRMM2756XHPCAZL9WNTGEPPAH5,A24N00FSJO3DZP,3LG268AV38CKP4MYW6UNHQQT2Y7REC,2,4,128,6612,2kFemale/F438,2kFemale/F389,2,0,2kFemale/F389,2kFemale/F103,2kFemale/F438
2,338JKRMM2756XHPCAZL9WNTGEPPAH5,A24N00FSJO3DZP,3LG268AV38CKP4MYW6UNHQQT2Y7REC,2,4,129,4531,2kFemale/F248,2kFemale/F712,2,1,2kFemale/F866,2kFemale/F712,2kFemale/F248
2,338JKRMM2756XHPCAZL9WNTGEPPAH5,A24N00FSJO3DZP,3LG268AV38CKP4MYW6UNHQQT2Y7REC,2,4,130,4629,2kFemale/F849,2kFemale/F513,0,1,2kFemale/F849,2kFemale/F513,2kFemale/F269
2,338JKRMM2756XHPCAZL9WNTGEPPAH5,A24N00FSJO3DZP,3LG268AV38CKP4MYW6UNHQQT2Y7REC,2,4,131,5309,2kFemale/F266,2kFemale/F860,0,2,2kFemale/F266,2kFemale/F643,2kFemale/F860
2,338JKRMM2756XHPCAZL9WNTGEPPAH5,A24N00FSJO3DZP,3LG268AV38CKP4MYW6UNHQQT2Y7REC,2,4,132,4121,2kFemale/F54,2kFemale/F824,2,1,2kFemale/F621,2kFemale/F824,2kFemale/F54
2,338JKRMM2756XHPCAZL9WNTGEPPAH5,A24N00FSJO3DZP,3LG268AV38CKP4MYW6UNHQQT2Y7REC,2,4,133,8506,2kFemale/F145,2kFemale/F746,2,0,2kFemale/F746,2kFemale/F282,2kFemale/F145
2,338JKRMM2756XHPCAZL9WNTGEPPAH5,A24N00FSJO3DZP,3LG268AV38CKP4MYW6UNHQQT2Y7REC,2,4,134,7253,2kFemale/F809,2kFemale/F444,0,2,2kFemale/F809,2kFemale/F49,2kFemale/F444
2,338JKRMM2756XHPCAZL9WNTGEPPAH5,A24N00FSJO3DZP,3LG268AV38CKP4MYW6UNHQQT2Y7REC,2,4,135,3688,2kFemale/F82,2kFemale/F424,2,1,2kFemale/F912,2kFemale/F424,2kFemale/F82
2,338JKRMM2756XHPCAZL9WNTGEPPAH5,A24N00FSJO3DZP,3LG268AV38CKP4MYW6UNHQQT2Y7REC,2,4,136,3858,2kFemale/F606,2kFemale/F65,2,0,2kFemale/F65,2kFemale/F554,2kFemale/F606
2,338JKRMM2756XHPCAZL9WNTGEPPAH5,A24N00FSJO3DZP,3LG268AV38CKP4MYW6UNHQQT2Y7REC,2,4,137,4160,2kFemale/F544,2kFemale/F784,1,0,2kFemale/F784,2kFemale/F544,2kFemale/F952
2,338JKRMM2756XHPCAZL9WNTGEPPAH5,A24N00FSJO3DZP,3LG268AV38CKP4MYW6UNHQQT2Y7REC,2,4,138,6730,2kFemale/F931,2kFemale/F747,2,0,2kFemale/F747,2kFemale/F109,2kFemale/F931
2,338JKRMM2756XHPCAZL9WNTGEPPAH5,A24N00FSJO3DZP,3LG268AV38CKP4MYW6UNHQQT2Y7REC,2,4,139,7023,2kFemale/F837,2kFemale/F263,2,0,2kFemale/F263,2kFemale/F269,2kFemale/F837
2,338JKRMM2756XHPCAZL9WNTGEPPAH5,A24N00FSJO3DZP,3LG268AV38CKP4MYW6UNHQQT2Y7REC,2,4,140,3171,2kFemale/F623,2kFemale/F469,2,1,2kFemale/F883,2kFemale/F469,2kFemale/F623
2,338JKRMM2756XHPCAZL9WNTGEPPAH5,A24N00FSJO3DZP,3LG268AV38CKP4MYW6UNHQQT2Y7REC,2,4,141,3496,2kFemale/F809,2kFemale/F258,0,2,2kFemale/F809,2kFemale/F748,2kFemale/F258
2,338JKRMM2756XHPCAZL9WNTGEPPAH5,A24N00FSJO3DZP,3LG268AV38CKP4MYW6UNHQQT2Y7REC,2,4,142,4270,2kFemale/F311,2kFemale/F931,2,0,2kFemale/F931,2kFemale/F35,2kFemale/F311
2,338JKRMM2756XHPCAZL9WNTGEPPAH5,A24N00FSJO3DZP,3LG268AV38CKP4MYW6UNHQQT2Y7REC,2,4,143,5048,2kFemale/F836,2kFemale/F91,1,0,2kFemale/F91,2kFemale/F836,2kFemale/F14
2,338JKRMM2756XHPCAZL9WNTGEPPAH5,A24N00FSJO3DZP,3LG268AV38CKP4MYW6UNHQQT2Y7REC,2,4,144,6827,2kFemale/F870,2kFemale/F198,2,0,2kFemale/F198,2kFemale/F738,2kFemale/F870
2,338JKRMM2756XHPCAZL9WNTGEPPAH5,A24N00FSJO3DZP,3LG268AV38CKP4MYW6UNHQQT2Y7REC,2,4,145,6281,2kFemale/F482,2kFemale/F57,2,0,2kFemale/F57,2kFemale/F706,2kFemale/F482
2,338JKRMM2756XHPCAZL9WNTGEPPAH5,A24N00FSJO3DZP,3LG268AV38CKP4MYW6UNHQQT2Y7REC,2,4,146,3350,2kFemale/F421,2kFemale/F425,0,1,2kFemale/F421,2kFemale/F425,2kFemale/F443
2,338JKRMM2756XHPCAZL9WNTGEPPAH5,A24N00FSJO3DZP,3LG268AV38CKP4MYW6UNHQQT2Y7REC,2,4,147,2295,2kFemale/F661,2kFemale/F504,2,1,2kFemale/F779,2kFemale/F504,2kFemale/F661
2,338JKRMM2756XHPCAZL9WNTGEPPAH5,A24N00FSJO3DZP,3LG268AV38CKP4MYW6UNHQQT2Y7REC,2,4,148,6416,2kFemale/F210,2kFemale/F912,0,2,2kFemale/F210,2kFemale/F438,2kFemale/F912
2,338JKRMM2756XHPCAZL9WNTGEPPAH5,A24N00FSJO3DZP,3LG268AV38CKP4MYW6UNHQQT2Y7REC,2,4,149,4951,2kFemale/F489,2kFemale/F34,2,1,2kFemale/F428,2kFemale/F34,2kFemale/F489
2,338JKRMM2756XHPCAZL9WNTGEPPAH5,A24N00FSJO3DZP,3LG268AV38CKP4MYW6UNHQQT2Y7REC,2,4,150,3898,2kFemale/F600,2kFemale/F311,1,0,2kFemale/F311,2kFemale/F600,2kFemale/F220
2,338JKRMM2756XHPCAZL9WNTGEPPAH5,A24N00FSJO3DZP,3LG268AV38CKP4MYW6UNHQQT2Y7REC,2,4,151,3565,2kFemale/F688,2kFemale/F783,2,1,2kFemale/F70,2kFemale/F783,2kFemale/F688
2,338JKRMM2756XHPCAZL9WNTGEPPAH5,A24N00FSJO3DZP,3LG268AV38CKP4MYW6UNHQQT2Y7REC,2,4,152,5196,2kFemale/F901,2kFemale/F659,2,0,2kFemale/F659,2kFemale/F329,2kFemale/F901
2,338JKRMM2756XHPCAZL9WNTGEPPAH5,A24N00FSJO3DZP,3LG268AV38CKP4MYW6UNHQQT2Y7REC,2,4,153,3554,2kFemale/F315,2kFemale/F848,2,1,2kFemale/F57,2kFemale/F848,2kFemale/F315
2,338JKRMM2756XHPCAZL9WNTGEPPAH5,A24N00FSJO3DZP,3LG268AV38CKP4MYW6UNHQQT2Y7REC,2,4,154,6427,2kFemale/F574,2kFemale/F720,2,1,2kFemale/F424,2kFemale/F720,2kFemale/F574
2,338JKRMM2756XHPCAZL9WNTGEPPAH5,A24N00FSJO3DZP,3LG268AV38CKP4MYW6UNHQQT2Y7REC,2,4,155,4340,2kFemale/F203,2kFemale/F669,0,2,2kFemale/F203,2kFemale/F518,2kFemale/F669
2,338JKRMM2756XHPCAZL9WNTGEPPAH5,A24N00FSJO3DZP,3LG268AV38CKP4MYW6UNHQQT2Y7REC,2,4,156,8074,2kFemale/F118,2kFemale/F658,2,0,2kFemale/F658,2kFemale/F126,2kFemale/F118
2,338JKRMM2756XHPCAZL9WNTGEPPAH5,A24N00FSJO3DZP,3LG268AV38CKP4MYW6UNHQQT2Y7REC,2,4,157,3313,2kFemale/F789,2kFemale/F306,2,1,2kFemale/F218,2kFemale/F306,2kFemale/F789
2,338JKRMM2756XHPCAZL9WNTGEPPAH5,A24N00FSJO3DZP,3LG268AV38CKP4MYW6UNHQQT2Y7REC,2,4,158,9257,2kFemale/F758,2kFemale/F273,2,0,2kFemale/F273,2kFemale/F666,2kFemale/F758
2,338JKRMM2756XHPCAZL9WNTGEPPAH5,A24N00FSJO3DZP,3LG268AV38CKP4MYW6UNHQQT2Y7REC,2,4,159,4560,2kFemale/F318,2kFemale/F431,2,1,2kFemale/F753,2kFemale/F431,2kFemale/F318
2,338JKRMM2756XHPCAZL9WNTGEPPAH5,A24N00FSJO3DZP,3LG268AV38CKP4MYW6UNHQQT2Y7REC,2,4,160,4866,2kFemale/F296,2kFemale/F219,2,0,2kFemale/F219,2kFemale/F109,2kFemale/F296
2,338JKRMM2756XHPCAZL9WNTGEPPAH5,A24N00FSJO3DZP,3LG268AV38CKP4MYW6UNHQQT2Y7REC,2,4,161,5118,2kFemale/F129,2kFemale/F116,2,0,2kFemale/F116,2kFemale/F872,2kFemale/F129
2,338JKRMM2756XHPCAZL9WNTGEPPAH5,A24N00FSJO3DZP,3LG268AV38CKP4MYW6UNHQQT2Y7REC,2,4,162,17896,2kFemale/F218,2kFemale/F621,0,1,2kFemale/F218,2kFemale/F621,2kFemale/F63
2,338JKRMM2756XHPCAZL9WNTGEPPAH5,A24N00FSJO3DZP,3LG268AV38CKP4MYW6UNHQQT2Y7REC,2,4,163,4724,2kFemale/F855,2kFemale/F476,1,2,2kFemale/F317,2kFemale/F855,2kFemale/F476
2,338JKRMM2756XHPCAZL9WNTGEPPAH5,A24N00FSJO3DZP,3LG268AV38CKP4MYW6UNHQQT2Y7REC,2,4,164,4079,2kFemale/F161,2kFemale/F407,2,1,2kFemale/F191,2kFemale/F407,2kFemale/F161
2,338JKRMM2756XHPCAZL9WNTGEPPAH5,A24N00FSJO3DZP,3LG268AV38CKP4MYW6UNHQQT2Y7REC,2,4,165,7861,2kFemale/F29,2kFemale/F663,0,1,2kFemale/F29,2kFemale/F663,2kFemale/F495
2,338JKRMM2756XHPCAZL9WNTGEPPAH5,A24N00FSJO3DZP,3LG268AV38CKP4MYW6UNHQQT2Y7REC,2,4,166,7905,2kFemale/F17,2kFemale/F790,0,1,2kFemale/F17,2kFemale/F790,2kFemale/F596
2,338JKRMM2756XHPCAZL9WNTGEPPAH5,A24N00FSJO3DZP,3LG268AV38CKP4MYW6UNHQQT2Y7REC,2,4,167,7306,2kFemale/F182,2kFemale/F557,0,2,2kFemale/F182,2kFemale/F139,2kFemale/F557
2,338JKRMM2756XHPCAZL9WNTGEPPAH5,A24N00FSJO3DZP,3LG268AV38CKP4MYW6UNHQQT2Y7REC,2,4,168,7598,2kFemale/F235,2kFemale/F892,0,2,2kFemale/F235,2kFemale/F554,2kFemale/F892
2,338JKRMM2756XHPCAZL9WNTGEPPAH5,A24N00FSJO3DZP,3LG268AV38CKP4MYW6UNHQQT2Y7REC,2,4,169,3698,2kFemale/F20,2kFemale/F46,2,0,2kFemale/F46,2kFemale/F52,2kFemale/F20
2,338JKRMM2756XHPCAZL9WNTGEPPAH5,A24N00FSJO3DZP,3LG268AV38CKP4MYW6UNHQQT2Y7REC,2,4,170,4786,2kFemale/F759,2kFemale/F67,0,2,2kFemale/F759,2kFemale/F589,2kFemale/F67
2,338JKRMM2756XHPCAZL9WNTGEPPAH5,A24N00FSJO3DZP,3LG268AV38CKP4MYW6UNHQQT2Y7REC,3,4,171,1921,2kFemale/F141,2kFemale/F141,true,true,2kFemale/F141,2kFemale/F141,2kFemale/F164
2,338JKRMM2756XHPCAZL9WNTGEPPAH5,A24N00FSJO3DZP,3LG268AV38CKP4MYW6UNHQQT2Y7REC,2,4,172,3281,2kFemale/F168,2kFemale/F789,2,1,2kFemale/F355,2kFemale/F789,2kFemale/F168
2,338JKRMM2756XHPCAZL9WNTGEPPAH5,A24N00FSJO3DZP,3LG268AV38CKP4MYW6UNHQQT2Y7REC,2,4,173,3422,2kFemale/F655,2kFemale/F699,0,1,2kFemale/F655,2kFemale/F699,2kFemale/F416
2,338JKRMM2756XHPCAZL9WNTGEPPAH5,A24N00FSJO3DZP,3LG268AV38CKP4MYW6UNHQQT2Y7REC,2,4,174,15075,2kFemale/F877,2kFemale/F474,1,2,2kFemale/F799,2kFemale/F877,2kFemale/F474
2,338JKRMM2756XHPCAZL9WNTGEPPAH5,A24N00FSJO3DZP,3LG268AV38CKP4MYW6UNHQQT2Y7REC,2,4,175,8230,2kFemale/F856,2kFemale/F719,1,0,2kFemale/F719,2kFemale/F856,2kFemale/F693
2,338JKRMM2756XHPCAZL9WNTGEPPAH5,A24N00FSJO3DZP,3LG268AV38CKP4MYW6UNHQQT2Y7REC,2,4,176,3778,2kFemale/F664,2kFemale/F818,2,1,2kFemale/F100,2kFemale/F818,2kFemale/F664
2,338JKRMM2756XHPCAZL9WNTGEPPAH5,A24N00FSJO3DZP,3LG268AV38CKP4MYW6UNHQQT2Y7REC,2,4,177,5475,2kFemale/F118,2kFemale/F925,1,0,2kFemale/F925,2kFemale/F118,2kFemale/F445
2,338JKRMM2756XHPCAZL9WNTGEPPAH5,A24N00FSJO3DZP,3LG268AV38CKP4MYW6UNHQQT2Y7REC,2,4,178,4817,2kFemale/F331,2kFemale/F80,0,1,2kFemale/F331,2kFemale/F80,2kFemale/F487
2,338JKRMM2756XHPCAZL9WNTGEPPAH5,A24N00FSJO3DZP,3LG268AV38CKP4MYW6UNHQQT2Y7REC,2,4,179,7154,2kFemale/F81,2kFemale/F816,2,0,2kFemale/F816,2kFemale/F365,2kFemale/F81
2,338JKRMM2756XHPCAZL9WNTGEPPAH5,A24N00FSJO3DZP,3LG268AV38CKP4MYW6UNHQQT2Y7REC,2,4,180,6839,2kFemale/F255,2kFemale/F909,2,1,2kFemale/F509,2kFemale/F909,2kFemale/F255
2,338JKRMM2756XHPCAZL9WNTGEPPAH5,A24N00FSJO3DZP,3LG268AV38CKP4MYW6UNHQQT2Y7REC,2,4,181,6668,2kFemale/F941,2kFemale/F205,2,0,2kFemale/F205,2kFemale/F495,2kFemale/F941
2,338JKRMM2756XHPCAZL9WNTGEPPAH5,A24N00FSJO3DZP,3LG268AV38CKP4MYW6UNHQQT2Y7REC,2,4,182,7460,2kFemale/F383,2kFemale/F281,1,2,2kFemale/F88,2kFemale/F383,2kFemale/F281
2,338JKRMM2756XHPCAZL9WNTGEPPAH5,A24N00FSJO3DZP,3LG268AV38CKP4MYW6UNHQQT2Y7REC,2,4,183,11668,2kFemale/F918,2kFemale/F19,2,1,2kFemale/F141,2kFemale/F19,2kFemale/F918
2,338JKRMM2756XHPCAZL9WNTGEPPAH5,A24N00FSJO3DZP,3LG268AV38CKP4MYW6UNHQQT2Y7REC,2,4,184,5935,2kFemale/F570,2kFemale/F109,1,2,2kFemale/F650,2kFemale/F570,2kFemale/F109
2,338JKRMM2756XHPCAZL9WNTGEPPAH5,A24N00FSJO3DZP,3LG268AV38CKP4MYW6UNHQQT2Y7REC,2,4,185,7727,2kFemale/F108,2kFemale/F573,1,0,2kFemale/F573,2kFemale/F108,2kFemale/F491
2,338JKRMM2756XHPCAZL9WNTGEPPAH5,A24N00FSJO3DZP,3LG268AV38CKP4MYW6UNHQQT2Y7REC,2,4,186,5403,2kFemale/F243,2kFemale/F388,2,0,2kFemale/F388,2kFemale/F894,2kFemale/F243
2,338JKRMM2756XHPCAZL9WNTGEPPAH5,A24N00FSJO3DZP,3LG268AV38CKP4MYW6UNHQQT2Y7REC,2,4,187,6005,2kFemale/F724,2kFemale/F519,2,0,2kFemale/F519,2kFemale/F578,2kFemale/F724
2,338JKRMM2756XHPCAZL9WNTGEPPAH5,A24N00FSJO3DZP,3LG268AV38CKP4MYW6UNHQQT2Y7REC,2,4,188,3772,2kFemale/F622,2kFemale/F265,1,0,2kFemale/F265,2kFemale/F622,2kFemale/F873
2,338JKRMM2756XHPCAZL9WNTGEPPAH5,A24N00FSJO3DZP,3LG268AV38CKP4MYW6UNHQQT2Y7REC,2,4,189,4332,2kFemale/F782,2kFemale/F118,1,0,2kFemale/F118,2kFemale/F782,2kFemale/F607
2,338JKRMM2756XHPCAZL9WNTGEPPAH5,A24N00FSJO3DZP,3LG268AV38CKP4MYW6UNHQQT2Y7REC,2,4,190,4395,2kFemale/F718,2kFemale/F626,2,0,2kFemale/F626,2kFemale/F277,2kFemale/F718
2,338JKRMM2756XHPCAZL9WNTGEPPAH5,A24N00FSJO3DZP,3LG268AV38CKP4MYW6UNHQQT2Y7REC,2,4,191,4568,2kFemale/F350,2kFemale/F500,0,2,2kFemale/F350,2kFemale/F704,2kFemale/F500
2,338JKRMM2756XHPCAZL9WNTGEPPAH5,A24N00FSJO3DZP,3LG268AV38CKP4MYW6UNHQQT2Y7REC,2,4,192,6528,2kFemale/F700,2kFemale/F620,0,1,2kFemale/F700,2kFemale/F620,2kFemale/F491
2,338JKRMM2756XHPCAZL9WNTGEPPAH5,A24N00FSJO3DZP,3LG268AV38CKP4MYW6UNHQQT2Y7REC,2,4,193,3847,2kFemale/F621,2kFemale/F758,0,1,2kFemale/F621,2kFemale/F758,2kFemale/F222
2,338JKRMM2756XHPCAZL9WNTGEPPAH5,A24N00FSJO3DZP,3LG268AV38CKP4MYW6UNHQQT2Y7REC,2,4,194,4946,2kFemale/F31,2kFemale/F28,2,0,2kFemale/F28,2kFemale/F503,2kFemale/F31
2,338JKRMM2756XHPCAZL9WNTGEPPAH5,A24N00FSJO3DZP,3LG268AV38CKP4MYW6UNHQQT2Y7REC,2,4,195,4387,2kFemale/F806,2kFemale/F324,2,1,2kFemale/F789,2kFemale/F324,2kFemale/F806
2,338JKRMM2756XHPCAZL9WNTGEPPAH5,A24N00FSJO3DZP,3LG268AV38CKP4MYW6UNHQQT2Y7REC,2,4,196,5534,2kFemale/F873,2kFemale/F795,2,0,2kFemale/F795,2kFemale/F763,2kFemale/F873
2,338JKRMM2756XHPCAZL9WNTGEPPAH5,A24N00FSJO3DZP,3LG268AV38CKP4MYW6UNHQQT2Y7REC,2,4,197,6999,2kFemale/F227,2kFemale/F227,http://52.23.229.132/2kFemale/F89.jpg,1,0,2kFemale/F89,2kFemale/F227,2kFemale/F232
2,338JKRMM2756XHPCAZL9WNTGEPPAH5,A24N00FSJO3DZP,3LG268AV38CKP4MYW6UNHQQT2Y7REC,2,4,198,2635,2kFemale/F401,2kFemale/F297,0,1,2kFemale/F401,2kFemale/F297,2kFemale/F660
2,338JKRMM2756XHPCAZL9WNTGEPPAH5,A24N00FSJO3DZP,3LG268AV38CKP4MYW6UNHQQT2Y7REC,2,4,199,4668,2kFemale/F194,2kFemale/F286,2,0,2kFemale/F286,2kFemale/F564,2kFemale/F194
2,338JKRMM2756XHPCAZL9WNTGEPPAH5,A24N00FSJO3DZP,3LG268AV38CKP4MYW6UNHQQT2Y7REC,2,4,200,7041,2kFemale/F700,2kFemale/F317,0,1,2kFemale/F700,2kFemale/F317,2kFemale/F799
2,338JKRMM2756XHPCAZL9WNTGEPPAH5,A24N00FSJO3DZP,3LG268AV38CKP4MYW6UNHQQT2Y7REC,2,4,201,8324,2kFemale/F270,2kFemale/F148,0,1,2kFemale/F270,2kFemale/F148,2kFemale/F1
2,338JKRMM2756XHPCAZL9WNTGEPPAH5,A24N00FSJO3DZP,3LG268AV38CKP4MYW6UNHQQT2Y7REC,2,4,202,10412,2kFemale/F606,2kFemale/F478,0,2,2kFemale/F606,2kFemale/F761,2kFemale/F478
2,338JKRMM2756XHPCAZL9WNTGEPPAH5,A24N00FSJO3DZP,3LG268AV38CKP4MYW6UNHQQT2Y7REC,2,4,203,5557,2kFemale/F408,2kFemale/F532,1,0,2kFemale/F532,2kFemale/F408,2kFemale/F255
2,338JKRMM2756XHPCAZL9WNTGEPPAH5,A24N00FSJO3DZP,3LG268AV38CKP4MYW6UNHQQT2Y7REC,2,4,204,3543,2kFemale/F392,2kFemale/F662,2,1,2kFemale/F467,2kFemale/F662,2kFemale/F392
2,338JKRMM2756XHPCAZL9WNTGEPPAH5,A24N00FSJO3DZP,3LG268AV38CKP4MYW6UNHQQT2Y7REC,2,4,205,5293,2kFemale/F853,2kFemale/F16,1,0,2kFemale/F16,2kFemale/F853,2kFemale/F491
2,338JKRMM2756XHPCAZL9WNTGEPPAH5,A24N00FSJO3DZP,3LG268AV38CKP4MYW6UNHQQT2Y7REC,2,4,206,4674,2kFemale/F34,2kFemale/F279,0,1,2kFemale/F34,2kFemale/F279,2kFemale/F763
2,338JKRMM2756XHPCAZL9WNTGEPPAH5,A24N00FSJO3DZP,3LG268AV38CKP4MYW6UNHQQT2Y7REC,2,4,207,5300,2kFemale/F125,2kFemale/F41,2,0,2kFemale/F41,2kFemale/F862,2kFemale/F125
2,338JKRMM2756XHPCAZL9WNTGEPPAH5,A24N00FSJO3DZP,3LG268AV38CKP4MYW6UNHQQT2Y7REC,2,4,208,5227,2kFemale/F778,2kFemale/F767,1,0,2kFemale/F767,2kFemale/F778,2kFemale/F181
2,338JKRMM2756XHPCAZL9WNTGEPPAH5,A24N00FSJO3DZP,3LG268AV38CKP4MYW6UNHQQT2Y7REC,2,4,209,4853,2kFemale/F565,2kFemale/F101,2,1,2kFemale/F293,2kFemale/F101,2kFemale/F565
2,338JKRMM2756XHPCAZL9WNTGEPPAH5,A24N00FSJO3DZP,3LG268AV38CKP4MYW6UNHQQT2Y7REC,2,4,210,3619,2kFemale/F131,2kFemale/F386,0,2,2kFemale/F131,2kFemale/F481,2kFemale/F386
2,338JKRMM2756XHPCAZL9WNTGEPPAH5,A24N00FSJO3DZP,3LG268AV38CKP4MYW6UNHQQT2Y7REC,2,4,211,4341,2kFemale/F112,2kFemale/F631,2,1,2kFemale/F312,2kFemale/F631,2kFemale/F112
2,338JKRMM2756XHPCAZL9WNTGEPPAH5,A24N00FSJO3DZP,3LG268AV38CKP4MYW6UNHQQT2Y7REC,2,4,212,3135,2kFemale/F884,2kFemale/F239,1,0,2kFemale/F239,2kFemale/F884,2kFemale/F66
2,338JKRMM2756XHPCAZL9WNTGEPPAH5,A24N00FSJO3DZP,3LG268AV38CKP4MYW6UNHQQT2Y7REC,2,4,213,4398,2kFemale/F106,2kFemale/F284,0,1,2kFemale/F106,2kFemale/F284,2kFemale/F377
2,338JKRMM2756XHPCAZL9WNTGEPPAH5,A24N00FSJO3DZP,3LG268AV38CKP4MYW6UNHQQT2Y7REC,2,4,214,6065,2kFemale/F130,2kFemale/F67,1,0,2kFemale/F67,2kFemale/F130,2kFemale/F751
2,338JKRMM2756XHPCAZL9WNTGEPPAH5,A24N00FSJO3DZP,3LG268AV38CKP4MYW6UNHQQT2Y7REC,2,4,215,9014,2kFemale/F42,2kFemale/F838,2,1,2kFemale/F124,2kFemale/F838,2kFemale/F42
2,338JKRMM2756XHPCAZL9WNTGEPPAH5,A24N00FSJO3DZP,3LG268AV38CKP4MYW6UNHQQT2Y7REC,2,4,216,5072,2kFemale/F577,2kFemale/F548,2,1,2kFemale/F166,2kFemale/F548,2kFemale/F577
2,338JKRMM2756XHPCAZL9WNTGEPPAH5,A24N00FSJO3DZP,3LG268AV38CKP4MYW6UNHQQT2Y7REC,2,4,217,3915,2kFemale/F928,2kFemale/F486,1,0,2kFemale/F486,2kFemale/F928,2kFemale/F188
2,338JKRMM2756XHPCAZL9WNTGEPPAH5,A24N00FSJO3DZP,3LG268AV38CKP4MYW6UNHQQT2Y7REC,2,4,218,4883,2kFemale/F829,2kFemale/F271,2,0,2kFemale/F271,2kFemale/F525,2kFemale/F829
3,378XPAWRUDJ6TC0WGH3UWZUVE24AIY,A1P8M5BKOTAA8I,3LG268AV38CKP4MYW6UNHQQT2Y7REC,1,1,5,5007,2kFemale/F18,2kFemale/F19,0,1,2kFemale/F18,2kFemale/F19,2kFemale/F16
3,378XPAWRUDJ6TC0WGH3UWZUVE24AIY,A1P8M5BKOTAA8I,3LG268AV38CKP4MYW6UNHQQT2Y7REC,1,1,11,10546,2kFemale/F18,2kFemale/F17,0,2,2kFemale/F18,2kFemale/F10,2kFemale/F17
3,378XPAWRUDJ6TC0WGH3UWZUVE24AIY,A1P8M5BKOTAA8I,3LG268AV38CKP4MYW6UNHQQT2Y7REC,1,1,12,11139,2kFemale/F12,2kFemale/F20,1,2,2kFemale/F16,2kFemale/F12,2kFemale/F20
3,378XPAWRUDJ6TC0WGH3UWZUVE24AIY,A1P8M5BKOTAA8I,3LG268AV38CKP4MYW6UNHQQT2Y7REC,2,5,14,14071,2kFemale/F695,2kFemale/F241,0,2,2kFemale/F695,2kFemale/F509,2kFemale/F241
3,378XPAWRUDJ6TC0WGH3UWZUVE24AIY,A1P8M5BKOTAA8I,3LG268AV38CKP4MYW6UNHQQT2Y7REC,2,5,15,14669,2kFemale/F670,2kFemale/F173,0,2,2kFemale/F670,2kFemale/F384,2kFemale/F173
3,378XPAWRUDJ6TC0WGH3UWZUVE24AIY,A1P8M5BKOTAA8I,3LG268AV38CKP4MYW6UNHQQT2Y7REC,2,5,16,11040,2kFemale/F558,2kFemale/F166,1,2,2kFemale/F55,2kFemale/F558,2kFemale/F166
3,378XPAWRUDJ6TC0WGH3UWZUVE24AIY,A1P8M5BKOTAA8I,3LG268AV38CKP4MYW6UNHQQT2Y7REC,2,5,17,7193,2kFemale/F663,2kFemale/F367,1,0,2kFemale/F367,2kFemale/F663,2kFemale/F598
3,378XPAWRUDJ6TC0WGH3UWZUVE24AIY,A1P8M5BKOTAA8I,3LG268AV38CKP4MYW6UNHQQT2Y7REC,2,5,18,25416,2kFemale/F390,2kFemale/F674,1,2,2kFemale/F297,2kFemale/F390,2kFemale/F674
3,378XPAWRUDJ6TC0WGH3UWZUVE24AIY,A1P8M5BKOTAA8I,3LG268AV38CKP4MYW6UNHQQT2Y7REC,2,5,19,9445,2kFemale/F447,2kFemale/F560,2,0,2kFemale/F560,2kFemale/F836,2kFemale/F447
3,378XPAWRUDJ6TC0WGH3UWZUVE24AIY,A1P8M5BKOTAA8I,3LG268AV38CKP4MYW6UNHQQT2Y7REC,2,5,20,9856,2kFemale/F401,2kFemale/F736,2,0,2kFemale/F736,2kFemale/F729,2kFemale/F401
3,378XPAWRUDJ6TC0WGH3UWZUVE24AIY,A1P8M5BKOTAA8I,3LG268AV38CKP4MYW6UNHQQT2Y7REC,2,5,21,5039,2kFemale/F860,2kFemale/F341,0,2,2kFemale/F860,2kFemale/F400,2kFemale/F341
3,378XPAWRUDJ6TC0WGH3UWZUVE24AIY,A1P8M5BKOTAA8I,3LG268AV38CKP4MYW6UNHQQT2Y7REC,2,5,22,7171,2kFemale/F830,2kFemale/F80,1,2,2kFemale/F137,2kFemale/F830,2kFemale/F80
3,378XPAWRUDJ6TC0WGH3UWZUVE24AIY,A1P8M5BKOTAA8I,3LG268AV38CKP4MYW6UNHQQT2Y7REC,2,5,23,4901,2kFemale/F557,2kFemale/F817,1,0,2kFemale/F817,2kFemale/F557,2kFemale/F356
3,378XPAWRUDJ6TC0WGH3UWZUVE24AIY,A1P8M5BKOTAA8I,3LG268AV38CKP4MYW6UNHQQT2Y7REC,2,5,24,8946,2kFemale/F29,2kFemale/F441,1,0,2kFemale/F441,2kFemale/F29,2kFemale/F717
3,378XPAWRUDJ6TC0WGH3UWZUVE24AIY,A1P8M5BKOTAA8I,3LG268AV38CKP4MYW6UNHQQT2Y7REC,2,5,25,3755,2kFemale/F80,2kFemale/F426,0,2,2kFemale/F80,2kFemale/F267,2kFemale/F426
3,378XPAWRUDJ6TC0WGH3UWZUVE24AIY,A1P8M5BKOTAA8I,3LG268AV38CKP4MYW6UNHQQT2Y7REC,2,5,26,20381,2kFemale/F233,2kFemale/F409,0,1,2kFemale/F233,2kFemale/F409,2kFemale/F10
3,378XPAWRUDJ6TC0WGH3UWZUVE24AIY,A1P8M5BKOTAA8I,3LG268AV38CKP4MYW6UNHQQT2Y7REC,2,5,27,10378,2kFemale/F67,2kFemale/F706,2,1,2kFemale/F414,2kFemale/F706,2kFemale/F67
3,378XPAWRUDJ6TC0WGH3UWZUVE24AIY,A1P8M5BKOTAA8I,3LG268AV38CKP4MYW6UNHQQT2Y7REC,2,5,28,8173,2kFemale/F175,2kFemale/F701,1,2,2kFemale/F66,2kFemale/F175,2kFemale/F701
3,378XPAWRUDJ6TC0WGH3UWZUVE24AIY,A1P8M5BKOTAA8I,3LG268AV38CKP4MYW6UNHQQT2Y7REC,2,5,29,5168,2kFemale/F740,2kFemale/F664,1,0,2kFemale/F664,2kFemale/F740,2kFemale/F478
3,378XPAWRUDJ6TC0WGH3UWZUVE24AIY,A1P8M5BKOTAA8I,3LG268AV38CKP4MYW6UNHQQT2Y7REC,2,5,30,4481,2kFemale/F777,2kFemale/F895,1,0,2kFemale/F895,2kFemale/F777,2kFemale/F2
3,378XPAWRUDJ6TC0WGH3UWZUVE24AIY,A1P8M5BKOTAA8I,3LG268AV38CKP4MYW6UNHQQT2Y7REC,2,5,31,3611,2kFemale/F460,2kFemale/F14,0,1,2kFemale/F460,2kFemale/F14,2kFemale/F593
3,378XPAWRUDJ6TC0WGH3UWZUVE24AIY,A1P8M5BKOTAA8I,3LG268AV38CKP4MYW6UNHQQT2Y7REC,2,5,32,14963,2kFemale/F821,2kFemale/F474,0,2,2kFemale/F821,2kFemale/F445,2kFemale/F474
3,378XPAWRUDJ6TC0WGH3UWZUVE24AIY,A1P8M5BKOTAA8I,3LG268AV38CKP4MYW6UNHQQT2Y7REC,2,5,33,7059,2kFemale/F814,2kFemale/F582,2,1,2kFemale/F406,2kFemale/F582,2kFemale/F814
3,378XPAWRUDJ6TC0WGH3UWZUVE24AIY,A1P8M5BKOTAA8I,3LG268AV38CKP4MYW6UNHQQT2Y7REC,2,5,34,8212,2kFemale/F503,2kFemale/F221,1,0,2kFemale/F221,2kFemale/F503,2kFemale/F690
3,378XPAWRUDJ6TC0WGH3UWZUVE24AIY,A1P8M5BKOTAA8I,3LG268AV38CKP4MYW6UNHQQT2Y7REC,2,5,35,6841,2kFemale/F84,2kFemale/F3,1,0,2kFemale/F3,2kFemale/F84,2kFemale/F248
3,378XPAWRUDJ6TC0WGH3UWZUVE24AIY,A1P8M5BKOTAA8I,3LG268AV38CKP4MYW6UNHQQT2Y7REC,2,5,36,5493,2kFemale/F852,2kFemale/F235,1,2,2kFemale/F300,2kFemale/F852,2kFemale/F235
3,378XPAWRUDJ6TC0WGH3UWZUVE24AIY,A1P8M5BKOTAA8I,3LG268AV38CKP4MYW6UNHQQT2Y7REC,2,5,37,8871,2kFemale/F413,2kFemale/F579,2,0,2kFemale/F579,2kFemale/F561,2kFemale/F413
3,378XPAWRUDJ6TC0WGH3UWZUVE24AIY,A1P8M5BKOTAA8I,3LG268AV38CKP4MYW6UNHQQT2Y7REC,2,5,38,3318,2kFemale/F499,2kFemale/F640,1,0,2kFemale/F640,2kFemale/F499,2kFemale/F285
3,378XPAWRUDJ6TC0WGH3UWZUVE24AIY,A1P8M5BKOTAA8I,3LG268AV38CKP4MYW6UNHQQT2Y7REC,2,5,39,3403,2kFemale/F722,2kFemale/F874,1,0,2kFemale/F874,2kFemale/F722,2kFemale/F844
3,378XPAWRUDJ6TC0WGH3UWZUVE24AIY,A1P8M5BKOTAA8I,3LG268AV38CKP4MYW6UNHQQT2Y7REC,2,5,40,4061,2kFemale/F516,2kFemale/F284,0,2,2kFemale/F516,2kFemale/F882,2kFemale/F284
3,378XPAWRUDJ6TC0WGH3UWZUVE24AIY,A1P8M5BKOTAA8I,3LG268AV38CKP4MYW6UNHQQT2Y7REC,2,5,41,6835,2kFemale/F324,2kFemale/F323,2,0,2kFemale/F323,2kFemale/F819,2kFemale/F324
3,378XPAWRUDJ6TC0WGH3UWZUVE24AIY,A1P8M5BKOTAA8I,3LG268AV38CKP4MYW6UNHQQT2Y7REC,2,5,42,10474,2kFemale/F209,2kFemale/F212,1,0,2kFemale/F212,2kFemale/F209,2kFemale/F497
3,378XPAWRUDJ6TC0WGH3UWZUVE24AIY,A1P8M5BKOTAA8I,3LG268AV38CKP4MYW6UNHQQT2Y7REC,2,5,43,4404,2kFemale/F614,2kFemale/F935,1,0,2kFemale/F935,2kFemale/F614,2kFemale/F853
3,378XPAWRUDJ6TC0WGH3UWZUVE24AIY,A1P8M5BKOTAA8I,3LG268AV38CKP4MYW6UNHQQT2Y7REC,2,5,44,17293,2kFemale/F242,2kFemale/F411,1,2,2kFemale/F445,2kFemale/F242,2kFemale/F411
3,378XPAWRUDJ6TC0WGH3UWZUVE24AIY,A1P8M5BKOTAA8I,3LG268AV38CKP4MYW6UNHQQT2Y7REC,2,5,45,8226,2kFemale/F933,2kFemale/F362,1,0,2kFemale/F362,2kFemale/F933,2kFemale/F380
3,378XPAWRUDJ6TC0WGH3UWZUVE24AIY,A1P8M5BKOTAA8I,3LG268AV38CKP4MYW6UNHQQT2Y7REC,2,5,46,3952,2kFemale/F6,2kFemale/F518,2,0,2kFemale/F518,2kFemale/F155,2kFemale/F6
3,378XPAWRUDJ6TC0WGH3UWZUVE24AIY,A1P8M5BKOTAA8I,3LG268AV38CKP4MYW6UNHQQT2Y7REC,2,5,47,5853,2kFemale/F648,2kFemale/F130,1,2,2kFemale/F808,2kFemale/F648,2kFemale/F130
3,378XPAWRUDJ6TC0WGH3UWZUVE24AIY,A1P8M5BKOTAA8I,3LG268AV38CKP4MYW6UNHQQT2Y7REC,2,5,48,4880,2kFemale/F191,2kFemale/F578,1,2,2kFemale/F819,2kFemale/F191,2kFemale/F578
3,378XPAWRUDJ6TC0WGH3UWZUVE24AIY,A1P8M5BKOTAA8I,3LG268AV38CKP4MYW6UNHQQT2Y7REC,2,5,49,6957,2kFemale/F678,2kFemale/F831,1,2,2kFemale/F822,2kFemale/F678,2kFemale/F831
3,378XPAWRUDJ6TC0WGH3UWZUVE24AIY,A1P8M5BKOTAA8I,3LG268AV38CKP4MYW6UNHQQT2Y7REC,2,5,50,6544,2kFemale/F82,2kFemale/F219,2,1,2kFemale/F465,2kFemale/F219,2kFemale/F82
3,378XPAWRUDJ6TC0WGH3UWZUVE24AIY,A1P8M5BKOTAA8I,3LG268AV38CKP4MYW6UNHQQT2Y7REC,2,5,51,7257,2kFemale/F912,2kFemale/F91,1,2,2kFemale/F581,2kFemale/F912,2kFemale/F91
3,378XPAWRUDJ6TC0WGH3UWZUVE24AIY,A1P8M5BKOTAA8I,3LG268AV38CKP4MYW6UNHQQT2Y7REC,2,5,52,7142,2kFemale/F467,2kFemale/F884,0,2,2kFemale/F467,2kFemale/F244,2kFemale/F884
3,378XPAWRUDJ6TC0WGH3UWZUVE24AIY,A1P8M5BKOTAA8I,3LG268AV38CKP4MYW6UNHQQT2Y7REC,2,5,53,8134,2kFemale/F815,2kFemale/F484,2,1,2kFemale/F132,2kFemale/F484,2kFemale/F815
3,378XPAWRUDJ6TC0WGH3UWZUVE24AIY,A1P8M5BKOTAA8I,3LG268AV38CKP4MYW6UNHQQT2Y7REC,2,5,54,5912,2kFemale/F953,2kFemale/F532,2,0,2kFemale/F532,2kFemale/F810,2kFemale/F953
3,378XPAWRUDJ6TC0WGH3UWZUVE24AIY,A1P8M5BKOTAA8I,3LG268AV38CKP4MYW6UNHQQT2Y7REC,3,5,55,3355,2kFemale/F200,2kFemale/F200,true,true,2kFemale/F200,2kFemale/F200,2kFemale/F191
3,378XPAWRUDJ6TC0WGH3UWZUVE24AIY,A1P8M5BKOTAA8I,3LG268AV38CKP4MYW6UNHQQT2Y7REC,2,5,56,8263,2kFemale/F445,2kFemale/F711,2,1,2kFemale/F417,2kFemale/F711,2kFemale/F445
3,378XPAWRUDJ6TC0WGH3UWZUVE24AIY,A1P8M5BKOTAA8I,3LG268AV38CKP4MYW6UNHQQT2Y7REC,2,5,57,7936,2kFemale/F311,2kFemale/F420,2,0,2kFemale/F420,2kFemale/F150,2kFemale/F311
3,378XPAWRUDJ6TC0WGH3UWZUVE24AIY,A1P8M5BKOTAA8I,3LG268AV38CKP4MYW6UNHQQT2Y7REC,2,5,58,6047,2kFemale/F894,2kFemale/F375,0,2,2kFemale/F894,2kFemale/F133,2kFemale/F375
3,378XPAWRUDJ6TC0WGH3UWZUVE24AIY,A1P8M5BKOTAA8I,3LG268AV38CKP4MYW6UNHQQT2Y7REC,2,5,59,5327,2kFemale/F451,2kFemale/F904,1,2,2kFemale/F430,2kFemale/F451,2kFemale/F904
3,378XPAWRUDJ6TC0WGH3UWZUVE24AIY,A1P8M5BKOTAA8I,3LG268AV38CKP4MYW6UNHQQT2Y7REC,2,5,60,3874,2kFemale/F671,2kFemale/F364,0,1,2kFemale/F671,2kFemale/F364,2kFemale/F540
3,378XPAWRUDJ6TC0WGH3UWZUVE24AIY,A1P8M5BKOTAA8I,3LG268AV38CKP4MYW6UNHQQT2Y7REC,2,5,61,7976,2kFemale/F222,2kFemale/F65,2,0,2kFemale/F65,2kFemale/F846,2kFemale/F222
3,378XPAWRUDJ6TC0WGH3UWZUVE24AIY,A1P8M5BKOTAA8I,3LG268AV38CKP4MYW6UNHQQT2Y7REC,2,5,62,3034,2kFemale/F803,2kFemale/F847,1,0,2kFemale/F847,2kFemale/F803,2kFemale/F855
3,378XPAWRUDJ6TC0WGH3UWZUVE24AIY,A1P8M5BKOTAA8I,3LG268AV38CKP4MYW6UNHQQT2Y7REC,2,5,63,6680,2kFemale/F22,2kFemale/F325,0,2,2kFemale/F22,2kFemale/F404,2kFemale/F325
3,378XPAWRUDJ6TC0WGH3UWZUVE24AIY,A1P8M5BKOTAA8I,3LG268AV38CKP4MYW6UNHQQT2Y7REC,2,5,64,6004,2kFemale/F205,2kFemale/F647,1,2,2kFemale/F668,2kFemale/F205,2kFemale/F647
3,378XPAWRUDJ6TC0WGH3UWZUVE24AIY,A1P8M5BKOTAA8I,3LG268AV38CKP4MYW6UNHQQT2Y7REC,2,5,65,44420,2kFemale/F74,2kFemale/F452,0,1,2kFemale/F74,2kFemale/F452,2kFemale/F795
3,378XPAWRUDJ6TC0WGH3UWZUVE24AIY,A1P8M5BKOTAA8I,3LG268AV38CKP4MYW6UNHQQT2Y7REC,2,5,66,4598,2kFemale/F627,2kFemale/F847,1,2,2kFemale/F57,2kFemale/F627,2kFemale/F847
3,378XPAWRUDJ6TC0WGH3UWZUVE24AIY,A1P8M5BKOTAA8I,3LG268AV38CKP4MYW6UNHQQT2Y7REC,2,5,67,3687,2kFemale/F455,2kFemale/F15,0,2,2kFemale/F455,2kFemale/F869,2kFemale/F15
3,378XPAWRUDJ6TC0WGH3UWZUVE24AIY,A1P8M5BKOTAA8I,3LG268AV38CKP4MYW6UNHQQT2Y7REC,2,5,68,5936,2kFemale/F48,2kFemale/F761,2,1,2kFemale/F753,2kFemale/F761,2kFemale/F48
3,378XPAWRUDJ6TC0WGH3UWZUVE24AIY,A1P8M5BKOTAA8I,3LG268AV38CKP4MYW6UNHQQT2Y7REC,2,5,69,3919,2kFemale/F635,2kFemale/F195,1,0,2kFemale/F195,2kFemale/F635,2kFemale/F422
3,378XPAWRUDJ6TC0WGH3UWZUVE24AIY,A1P8M5BKOTAA8I,3LG268AV38CKP4MYW6UNHQQT2Y7REC,2,5,70,4245,2kFemale/F619,2kFemale/F717,2,0,2kFemale/F717,2kFemale/F231,2kFemale/F619
3,378XPAWRUDJ6TC0WGH3UWZUVE24AIY,A1P8M5BKOTAA8I,3LG268AV38CKP4MYW6UNHQQT2Y7REC,2,5,71,6175,2kFemale/F426,2kFemale/F94,0,2,2kFemale/F426,2kFemale/F777,2kFemale/F94
3,378XPAWRUDJ6TC0WGH3UWZUVE24AIY,A1P8M5BKOTAA8I,3LG268AV38CKP4MYW6UNHQQT2Y7REC,2,5,72,9603,2kFemale/F533,2kFemale/F257,2,1,2kFemale/F588,2kFemale/F257,2kFemale/F533
3,378XPAWRUDJ6TC0WGH3UWZUVE24AIY,A1P8M5BKOTAA8I,3LG268AV38CKP4MYW6UNHQQT2Y7REC,2,5,73,9357,2kFemale/F818,2kFemale/F81,0,1,2kFemale/F818,2kFemale/F81,2kFemale/F925
3,378XPAWRUDJ6TC0WGH3UWZUVE24AIY,A1P8M5BKOTAA8I,3LG268AV38CKP4MYW6UNHQQT2Y7REC,2,5,74,10122,2kFemale/F923,2kFemale/F541,1,0,2kFemale/F541,2kFemale/F923,2kFemale/F785
3,378XPAWRUDJ6TC0WGH3UWZUVE24AIY,A1P8M5BKOTAA8I,3LG268AV38CKP4MYW6UNHQQT2Y7REC,2,5,75,5716,2kFemale/F749,2kFemale/F688,1,2,2kFemale/F207,2kFemale/F749,2kFemale/F688
3,378XPAWRUDJ6TC0WGH3UWZUVE24AIY,A1P8M5BKOTAA8I,3LG268AV38CKP4MYW6UNHQQT2Y7REC,2,5,76,6946,2kFemale/F381,2kFemale/F163,1,0,2kFemale/F163,2kFemale/F381,2kFemale/F664
3,378XPAWRUDJ6TC0WGH3UWZUVE24AIY,A1P8M5BKOTAA8I,3LG268AV38CKP4MYW6UNHQQT2Y7REC,2,5,77,8109,2kFemale/F555,2kFemale/F401,1,2,2kFemale/F266,2kFemale/F555,2kFemale/F401
3,378XPAWRUDJ6TC0WGH3UWZUVE24AIY,A1P8M5BKOTAA8I,3LG268AV38CKP4MYW6UNHQQT2Y7REC,2,5,78,5253,2kFemale/F713,2kFemale/F541,1,2,2kFemale/F928,2kFemale/F713,2kFemale/F541
3,378XPAWRUDJ6TC0WGH3UWZUVE24AIY,A1P8M5BKOTAA8I,3LG268AV38CKP4MYW6UNHQQT2Y7REC,2,5,79,7216,2kFemale/F520,2kFemale/F48,1,0,2kFemale/F48,2kFemale/F520,2kFemale/F897
3,378XPAWRUDJ6TC0WGH3UWZUVE24AIY,A1P8M5BKOTAA8I,3LG268AV38CKP4MYW6UNHQQT2Y7REC,2,5,80,3654,2kFemale/F397,2kFemale/F649,1,0,2kFemale/F649,2kFemale/F397,2kFemale/F362
3,378XPAWRUDJ6TC0WGH3UWZUVE24AIY,A1P8M5BKOTAA8I,3LG268AV38CKP4MYW6UNHQQT2Y7REC,2,5,81,5365,2kFemale/F336,2kFemale/F91,2,1,2kFemale/F839,2kFemale/F91,2kFemale/F336
3,378XPAWRUDJ6TC0WGH3UWZUVE24AIY,A1P8M5BKOTAA8I,3LG268AV38CKP4MYW6UNHQQT2Y7REC,2,5,82,7228,2kFemale/F519,2kFemale/F127,1,0,2kFemale/F127,2kFemale/F519,2kFemale/F788
3,378XPAWRUDJ6TC0WGH3UWZUVE24AIY,A1P8M5BKOTAA8I,3LG268AV38CKP4MYW6UNHQQT2Y7REC,2,5,83,5925,2kFemale/F204,2kFemale/F29,0,2,2kFemale/F204,2kFemale/F365,2kFemale/F29
3,378XPAWRUDJ6TC0WGH3UWZUVE24AIY,A1P8M5BKOTAA8I,3LG268AV38CKP4MYW6UNHQQT2Y7REC,2,5,84,6647,2kFemale/F572,2kFemale/F768,2,1,2kFemale/F307,2kFemale/F768,2kFemale/F572
3,378XPAWRUDJ6TC0WGH3UWZUVE24AIY,A1P8M5BKOTAA8I,3LG268AV38CKP4MYW6UNHQQT2Y7REC,2,5,85,9817,2kFemale/F105,2kFemale/F267,0,2,2kFemale/F105,2kFemale/F417,2kFemale/F267
3,378XPAWRUDJ6TC0WGH3UWZUVE24AIY,A1P8M5BKOTAA8I,3LG268AV38CKP4MYW6UNHQQT2Y7REC,2,5,86,14469,2kFemale/F88,2kFemale/F23,0,1,2kFemale/F88,2kFemale/F23,2kFemale/F468
3,378XPAWRUDJ6TC0WGH3UWZUVE24AIY,A1P8M5BKOTAA8I,3LG268AV38CKP4MYW6UNHQQT2Y7REC,2,5,87,3866,2kFemale/F208,2kFemale/F817,2,0,2kFemale/F817,2kFemale/F857,2kFemale/F208
3,378XPAWRUDJ6TC0WGH3UWZUVE24AIY,A1P8M5BKOTAA8I,3LG268AV38CKP4MYW6UNHQQT2Y7REC,2,5,88,5172,2kFemale/F133,2kFemale/F413,2,1,2kFemale/F618,2kFemale/F413,2kFemale/F133
3,378XPAWRUDJ6TC0WGH3UWZUVE24AIY,A1P8M5BKOTAA8I,3LG268AV38CKP4MYW6UNHQQT2Y7REC,2,5,89,4940,2kFemale/F566,2kFemale/F635,0,2,2kFemale/F566,2kFemale/F558,2kFemale/F635
3,378XPAWRUDJ6TC0WGH3UWZUVE24AIY,A1P8M5BKOTAA8I,3LG268AV38CKP4MYW6UNHQQT2Y7REC,2,5,90,3336,2kFemale/F167,2kFemale/F413,1,0,2kFemale/F413,2kFemale/F167,2kFemale/F184
3,378XPAWRUDJ6TC0WGH3UWZUVE24AIY,A1P8M5BKOTAA8I,3LG268AV38CKP4MYW6UNHQQT2Y7REC,3,5,91,2449,2kFemale/F198,2kFemale/F198,true,true,2kFemale/F198,2kFemale/F198,2kFemale/F183
3,378XPAWRUDJ6TC0WGH3UWZUVE24AIY,A1P8M5BKOTAA8I,3LG268AV38CKP4MYW6UNHQQT2Y7REC,2,5,92,9072,2kFemale/F389,2kFemale/F530,2,0,2kFemale/F530,2kFemale/F806,2kFemale/F389
3,378XPAWRUDJ6TC0WGH3UWZUVE24AIY,A1P8M5BKOTAA8I,3LG268AV38CKP4MYW6UNHQQT2Y7REC,2,5,93,6231,2kFemale/F736,2kFemale/F941,1,0,2kFemale/F941,2kFemale/F736,2kFemale/F453
3,378XPAWRUDJ6TC0WGH3UWZUVE24AIY,A1P8M5BKOTAA8I,3LG268AV38CKP4MYW6UNHQQT2Y7REC,2,5,94,4436,2kFemale/F608,2kFemale/F327,1,0,2kFemale/F327,2kFemale/F608,2kFemale/F953
3,378XPAWRUDJ6TC0WGH3UWZUVE24AIY,A1P8M5BKOTAA8I,3LG268AV38CKP4MYW6UNHQQT2Y7REC,2,5,95,4493,2kFemale/F27,2kFemale/F820,1,0,2kFemale/F820,2kFemale/F27,2kFemale/F856
3,378XPAWRUDJ6TC0WGH3UWZUVE24AIY,A1P8M5BKOTAA8I,3LG268AV38CKP4MYW6UNHQQT2Y7REC,2,5,96,4342,2kFemale/F242,2kFemale/F939,2,0,2kFemale/F939,2kFemale/F580,2kFemale/F242
3,378XPAWRUDJ6TC0WGH3UWZUVE24AIY,A1P8M5BKOTAA8I,3LG268AV38CKP4MYW6UNHQQT2Y7REC,2,5,97,2586,2kFemale/F115,2kFemale/F858,2,0,2kFemale/F858,2kFemale/F499,2kFemale/F115
3,378XPAWRUDJ6TC0WGH3UWZUVE24AIY,A1P8M5BKOTAA8I,3LG268AV38CKP4MYW6UNHQQT2Y7REC,2,5,98,3095,2kFemale/F116,2kFemale/F519,2,0,2kFemale/F519,2kFemale/F833,2kFemale/F116
3,378XPAWRUDJ6TC0WGH3UWZUVE24AIY,A1P8M5BKOTAA8I,3LG268AV38CKP4MYW6UNHQQT2Y7REC,2,5,99,2886,2kFemale/F844,2kFemale/F285,2,0,2kFemale/F285,2kFemale/F244,2kFemale/F844
3,378XPAWRUDJ6TC0WGH3UWZUVE24AIY,A1P8M5BKOTAA8I,3LG268AV38CKP4MYW6UNHQQT2Y7REC,2,5,100,2805,2kFemale/F318,2kFemale/F451,1,0,2kFemale/F451,2kFemale/F318,2kFemale/F929
3,378XPAWRUDJ6TC0WGH3UWZUVE24AIY,A1P8M5BKOTAA8I,3LG268AV38CKP4MYW6UNHQQT2Y7REC,2,5,101,2646,2kFemale/F791,2kFemale/F170,2,0,2kFemale/F170,2kFemale/F673,2kFemale/F791
3,378XPAWRUDJ6TC0WGH3UWZUVE24AIY,A1P8M5BKOTAA8I,3LG268AV38CKP4MYW6UNHQQT2Y7REC,2,5,102,3620,2kFemale/F681,2kFemale/F901,1,0,2kFemale/F901,2kFemale/F681,2kFemale/F646
3,378XPAWRUDJ6TC0WGH3UWZUVE24AIY,A1P8M5BKOTAA8I,3LG268AV38CKP4MYW6UNHQQT2Y7REC,2,5,103,3742,2kFemale/F794,2kFemale/F798,1,0,2kFemale/F798,2kFemale/F794,2kFemale/F194
3,378XPAWRUDJ6TC0WGH3UWZUVE24AIY,A1P8M5BKOTAA8I,3LG268AV38CKP4MYW6UNHQQT2Y7REC,2,5,104,3484,2kFemale/F943,2kFemale/F441,2,0,2kFemale/F441,2kFemale/F787,2kFemale/F943
3,378XPAWRUDJ6TC0WGH3UWZUVE24AIY,A1P8M5BKOTAA8I,3LG268AV38CKP4MYW6UNHQQT2Y7REC,2,5,105,4049,2kFemale/F796,2kFemale/F30,1,0,2kFemale/F30,2kFemale/F796,2kFemale/F795
3,378XPAWRUDJ6TC0WGH3UWZUVE24AIY,A1P8M5BKOTAA8I,3LG268AV38CKP4MYW6UNHQQT2Y7REC,2,5,106,4331,2kFemale/F274,2kFemale/F266,2,0,2kFemale/F266,2kFemale/F324,2kFemale/F274
3,378XPAWRUDJ6TC0WGH3UWZUVE24AIY,A1P8M5BKOTAA8I,3LG268AV38CKP4MYW6UNHQQT2Y7REC,2,5,107,2764,2kFemale/F911,2kFemale/F34,2,0,2kFemale/F34,2kFemale/F722,2kFemale/F911
3,378XPAWRUDJ6TC0WGH3UWZUVE24AIY,A1P8M5BKOTAA8I,3LG268AV38CKP4MYW6UNHQQT2Y7REC,2,5,108,6061,2kFemale/F256,2kFemale/F904,2,0,2kFemale/F904,2kFemale/F57,2kFemale/F256
3,378XPAWRUDJ6TC0WGH3UWZUVE24AIY,A1P8M5BKOTAA8I,3LG268AV38CKP4MYW6UNHQQT2Y7REC,2,5,109,3482,2kFemale/F150,2kFemale/F517,0,2,2kFemale/F150,2kFemale/F449,2kFemale/F517
3,378XPAWRUDJ6TC0WGH3UWZUVE24AIY,A1P8M5BKOTAA8I,3LG268AV38CKP4MYW6UNHQQT2Y7REC,2,5,110,3395,2kFemale/F578,2kFemale/F915,2,0,2kFemale/F915,2kFemale/F739,2kFemale/F578
3,378XPAWRUDJ6TC0WGH3UWZUVE24AIY,A1P8M5BKOTAA8I,3LG268AV38CKP4MYW6UNHQQT2Y7REC,2,5,111,3510,2kFemale/F616,2kFemale/F915,1,0,2kFemale/F915,2kFemale/F616,2kFemale/F361
3,378XPAWRUDJ6TC0WGH3UWZUVE24AIY,A1P8M5BKOTAA8I,3LG268AV38CKP4MYW6UNHQQT2Y7REC,2,5,112,3321,2kFemale/F776,2kFemale/F134,1,2,2kFemale/F9,2kFemale/F776,2kFemale/F134
3,378XPAWRUDJ6TC0WGH3UWZUVE24AIY,A1P8M5BKOTAA8I,3LG268AV38CKP4MYW6UNHQQT2Y7REC,2,5,113,3456,2kFemale/F235,2kFemale/F34,2,0,2kFemale/F34,2kFemale/F844,2kFemale/F235
3,378XPAWRUDJ6TC0WGH3UWZUVE24AIY,A1P8M5BKOTAA8I,3LG268AV38CKP4MYW6UNHQQT2Y7REC,2,5,114,2175,2kFemale/F623,2kFemale/F270,1,0,2kFemale/F270,2kFemale/F623,2kFemale/F466
3,378XPAWRUDJ6TC0WGH3UWZUVE24AIY,A1P8M5BKOTAA8I,3LG268AV38CKP4MYW6UNHQQT2Y7REC,2,5,115,4918,2kFemale/F882,2kFemale/F500,1,0,2kFemale/F500,2kFemale/F882,2kFemale/F703
3,378XPAWRUDJ6TC0WGH3UWZUVE24AIY,A1P8M5BKOTAA8I,3LG268AV38CKP4MYW6UNHQQT2Y7REC,2,5,117,5330,2kFemale/F472,2kFemale/F620,1,2,2kFemale/F487,2kFemale/F472,2kFemale/F620
3,378XPAWRUDJ6TC0WGH3UWZUVE24AIY,A1P8M5BKOTAA8I,3LG268AV38CKP4MYW6UNHQQT2Y7REC,2,5,118,3601,2kFemale/F519,2kFemale/F36,1,0,2kFemale/F36,2kFemale/F519,2kFemale/F949
3,378XPAWRUDJ6TC0WGH3UWZUVE24AIY,A1P8M5BKOTAA8I,3LG268AV38CKP4MYW6UNHQQT2Y7REC,2,5,119,6095,2kFemale/F436,2kFemale/F56,1,0,2kFemale/F56,2kFemale/F436,2kFemale/F687
3,378XPAWRUDJ6TC0WGH3UWZUVE24AIY,A1P8M5BKOTAA8I,3LG268AV38CKP4MYW6UNHQQT2Y7REC,2,5,120,2934,2kFemale/F135,2kFemale/F835,2,0,2kFemale/F835,2kFemale/F446,2kFemale/F135
3,378XPAWRUDJ6TC0WGH3UWZUVE24AIY,A1P8M5BKOTAA8I,3LG268AV38CKP4MYW6UNHQQT2Y7REC,2,5,121,4135,2kFemale/F423,2kFemale/F856,0,1,2kFemale/F423,2kFemale/F856,2kFemale/F337
3,378XPAWRUDJ6TC0WGH3UWZUVE24AIY,A1P8M5BKOTAA8I,3LG268AV38CKP4MYW6UNHQQT2Y7REC,2,5,122,2669,2kFemale/F600,2kFemale/F210,2,0,2kFemale/F210,2kFemale/F387,2kFemale/F600
3,378XPAWRUDJ6TC0WGH3UWZUVE24AIY,A1P8M5BKOTAA8I,3LG268AV38CKP4MYW6UNHQQT2Y7REC,2,5,123,2511,2kFemale/F479,2kFemale/F448,2,0,2kFemale/F448,2kFemale/F394,2kFemale/F479
3,378XPAWRUDJ6TC0WGH3UWZUVE24AIY,A1P8M5BKOTAA8I,3LG268AV38CKP4MYW6UNHQQT2Y7REC,2,5,124,5128,2kFemale/F791,2kFemale/F525,0,2,2kFemale/F791,2kFemale/F488,2kFemale/F525
3,378XPAWRUDJ6TC0WGH3UWZUVE24AIY,A1P8M5BKOTAA8I,3LG268AV38CKP4MYW6UNHQQT2Y7REC,2,5,125,2359,2kFemale/F537,2kFemale/F942,2,0,2kFemale/F942,2kFemale/F879,2kFemale/F537
3,378XPAWRUDJ6TC0WGH3UWZUVE24AIY,A1P8M5BKOTAA8I,3LG268AV38CKP4MYW6UNHQQT2Y7REC,2,5,126,2542,2kFemale/F66,2kFemale/F853,2,0,2kFemale/F853,2kFemale/F741,2kFemale/F66
3,378XPAWRUDJ6TC0WGH3UWZUVE24AIY,A1P8M5BKOTAA8I,3LG268AV38CKP4MYW6UNHQQT2Y7REC,2,5,127,5139,2kFemale/F906,2kFemale/F295,1,0,2kFemale/F295,2kFemale/F906,2kFemale/F934
3,378XPAWRUDJ6TC0WGH3UWZUVE24AIY,A1P8M5BKOTAA8I,3LG268AV38CKP4MYW6UNHQQT2Y7REC,2,5,128,5781,2kFemale/F126,2kFemale/F828,1,2,2kFemale/F120,2kFemale/F126,2kFemale/F828
3,378XPAWRUDJ6TC0WGH3UWZUVE24AIY,A1P8M5BKOTAA8I,3LG268AV38CKP4MYW6UNHQQT2Y7REC,2,5,129,12455,2kFemale/F483,2kFemale/F5,2,0,2kFemale/F5,2kFemale/F789,2kFemale/F483
3,378XPAWRUDJ6TC0WGH3UWZUVE24AIY,A1P8M5BKOTAA8I,3LG268AV38CKP4MYW6UNHQQT2Y7REC,2,5,130,2723,2kFemale/F1,2kFemale/F399,0,1,2kFemale/F1,2kFemale/F399,2kFemale/F465
3,378XPAWRUDJ6TC0WGH3UWZUVE24AIY,A1P8M5BKOTAA8I,3LG268AV38CKP4MYW6UNHQQT2Y7REC,2,5,131,6631,2kFemale/F952,2kFemale/F836,1,0,2kFemale/F836,2kFemale/F952,2kFemale/F822
3,378XPAWRUDJ6TC0WGH3UWZUVE24AIY,A1P8M5BKOTAA8I,3LG268AV38CKP4MYW6UNHQQT2Y7REC,2,5,132,6538,2kFemale/F481,2kFemale/F682,1,0,2kFemale/F682,2kFemale/F481,2kFemale/F465
3,378XPAWRUDJ6TC0WGH3UWZUVE24AIY,A1P8M5BKOTAA8I,3LG268AV38CKP4MYW6UNHQQT2Y7REC,2,5,133,3848,2kFemale/F738,2kFemale/F788,2,0,2kFemale/F788,2kFemale/F371,2kFemale/F738
3,378XPAWRUDJ6TC0WGH3UWZUVE24AIY,A1P8M5BKOTAA8I,3LG268AV38CKP4MYW6UNHQQT2Y7REC,2,5,134,3111,2kFemale/F509,2kFemale/F349,2,0,2kFemale/F349,2kFemale/F216,2kFemale/F509
3,378XPAWRUDJ6TC0WGH3UWZUVE24AIY,A1P8M5BKOTAA8I,3LG268AV38CKP4MYW6UNHQQT2Y7REC,2,5,135,2982,2kFemale/F320,2kFemale/F858,2,0,2kFemale/F858,2kFemale/F63,2kFemale/F320
3,378XPAWRUDJ6TC0WGH3UWZUVE24AIY,A1P8M5BKOTAA8I,3LG268AV38CKP4MYW6UNHQQT2Y7REC,2,5,136,4894,2kFemale/F800,2kFemale/F924,0,1,2kFemale/F800,2kFemale/F924,2kFemale/F205
3,378XPAWRUDJ6TC0WGH3UWZUVE24AIY,A1P8M5BKOTAA8I,3LG268AV38CKP4MYW6UNHQQT2Y7REC,2,5,137,4692,2kFemale/F229,2kFemale/F652,1,2,2kFemale/F112,2kFemale/F229,2kFemale/F652
3,378XPAWRUDJ6TC0WGH3UWZUVE24AIY,A1P8M5BKOTAA8I,3LG268AV38CKP4MYW6UNHQQT2Y7REC,2,5,138,4180,2kFemale/F253,2kFemale/F575,1,0,2kFemale/F575,2kFemale/F253,2kFemale/F823
3,378XPAWRUDJ6TC0WGH3UWZUVE24AIY,A1P8M5BKOTAA8I,3LG268AV38CKP4MYW6UNHQQT2Y7REC,2,5,139,5287,2kFemale/F288,2kFemale/F86,1,2,2kFemale/F709,2kFemale/F288,2kFemale/F86
3,378XPAWRUDJ6TC0WGH3UWZUVE24AIY,A1P8M5BKOTAA8I,3LG268AV38CKP4MYW6UNHQQT2Y7REC,2,5,140,6425,2kFemale/F322,2kFemale/F686,1,2,2kFemale/F412,2kFemale/F322,2kFemale/F686
3,378XPAWRUDJ6TC0WGH3UWZUVE24AIY,A1P8M5BKOTAA8I,3LG268AV38CKP4MYW6UNHQQT2Y7REC,2,5,141,4487,2kFemale/F521,2kFemale/F452,0,1,2kFemale/F521,2kFemale/F452,2kFemale/F473
3,378XPAWRUDJ6TC0WGH3UWZUVE24AIY,A1P8M5BKOTAA8I,3LG268AV38CKP4MYW6UNHQQT2Y7REC,2,5,142,4461,2kFemale/F823,2kFemale/F266,2,0,2kFemale/F266,2kFemale/F362,2kFemale/F823
3,378XPAWRUDJ6TC0WGH3UWZUVE24AIY,A1P8M5BKOTAA8I,3LG268AV38CKP4MYW6UNHQQT2Y7REC,2,5,143,3514,2kFemale/F856,2kFemale/F889,1,2,2kFemale/F457,2kFemale/F856,2kFemale/F889
3,378XPAWRUDJ6TC0WGH3UWZUVE24AIY,A1P8M5BKOTAA8I,3LG268AV38CKP4MYW6UNHQQT2Y7REC,2,5,144,4984,2kFemale/F67,2kFemale/F832,2,1,2kFemale/F487,2kFemale/F832,2kFemale/F67
3,378XPAWRUDJ6TC0WGH3UWZUVE24AIY,A1P8M5BKOTAA8I,3LG268AV38CKP4MYW6UNHQQT2Y7REC,2,5,145,5104,2kFemale/F384,2kFemale/F725,2,0,2kFemale/F725,2kFemale/F557,2kFemale/F384
3,378XPAWRUDJ6TC0WGH3UWZUVE24AIY,A1P8M5BKOTAA8I,3LG268AV38CKP4MYW6UNHQQT2Y7REC,2,5,146,4376,2kFemale/F203,2kFemale/F184,1,2,2kFemale/F407,2kFemale/F203,2kFemale/F184
3,378XPAWRUDJ6TC0WGH3UWZUVE24AIY,A1P8M5BKOTAA8I,3LG268AV38CKP4MYW6UNHQQT2Y7REC,2,5,147,4290,2kFemale/F118,2kFemale/F391,2,1,2kFemale/F66,2kFemale/F391,2kFemale/F118
3,378XPAWRUDJ6TC0WGH3UWZUVE24AIY,A1P8M5BKOTAA8I,3LG268AV38CKP4MYW6UNHQQT2Y7REC,2,5,148,5473,2kFemale/F544,2kFemale/F666,2,1,2kFemale/F637,2kFemale/F666,2kFemale/F544
3,378XPAWRUDJ6TC0WGH3UWZUVE24AIY,A1P8M5BKOTAA8I,3LG268AV38CKP4MYW6UNHQQT2Y7REC,2,5,149,3869,2kFemale/F65,2kFemale/F680,0,1,2kFemale/F65,2kFemale/F680,2kFemale/F293
3,378XPAWRUDJ6TC0WGH3UWZUVE24AIY,A1P8M5BKOTAA8I,3LG268AV38CKP4MYW6UNHQQT2Y7REC,2,5,150,5315,2kFemale/F878,2kFemale/F14,2,0,2kFemale/F14,2kFemale/F357,2kFemale/F878
3,378XPAWRUDJ6TC0WGH3UWZUVE24AIY,A1P8M5BKOTAA8I,3LG268AV38CKP4MYW6UNHQQT2Y7REC,2,5,151,5098,2kFemale/F504,2kFemale/F794,2,0,2kFemale/F794,2kFemale/F692,2kFemale/F504
3,378XPAWRUDJ6TC0WGH3UWZUVE24AIY,A1P8M5BKOTAA8I,3LG268AV38CKP4MYW6UNHQQT2Y7REC,2,5,152,5084,2kFemale/F622,2kFemale/F640,1,0,2kFemale/F640,2kFemale/F622,2kFemale/F506
3,378XPAWRUDJ6TC0WGH3UWZUVE24AIY,A1P8M5BKOTAA8I,3LG268AV38CKP4MYW6UNHQQT2Y7REC,3,5,153,1938,2kFemale/F182,2kFemale/F182,true,true,2kFemale/F182,2kFemale/F182,2kFemale/F141
3,378XPAWRUDJ6TC0WGH3UWZUVE24AIY,A1P8M5BKOTAA8I,3LG268AV38CKP4MYW6UNHQQT2Y7REC,2,5,154,5647,2kFemale/F892,2kFemale/F371,1,2,2kFemale/F475,2kFemale/F892,2kFemale/F371
3,378XPAWRUDJ6TC0WGH3UWZUVE24AIY,A1P8M5BKOTAA8I,3LG268AV38CKP4MYW6UNHQQT2Y7REC,2,5,155,4711,2kFemale/F502,2kFemale/F324,2,0,2kFemale/F324,2kFemale/F382,2kFemale/F502
3,378XPAWRUDJ6TC0WGH3UWZUVE24AIY,A1P8M5BKOTAA8I,3LG268AV38CKP4MYW6UNHQQT2Y7REC,2,5,156,4993,2kFemale/F40,2kFemale/F333,1,0,2kFemale/F333,2kFemale/F40,2kFemale/F136
3,378XPAWRUDJ6TC0WGH3UWZUVE24AIY,A1P8M5BKOTAA8I,3LG268AV38CKP4MYW6UNHQQT2Y7REC,2,5,157,7461,2kFemale/F435,2kFemale/F73,2,0,2kFemale/F73,2kFemale/F705,2kFemale/F435
3,378XPAWRUDJ6TC0WGH3UWZUVE24AIY,A1P8M5BKOTAA8I,3LG268AV38CKP4MYW6UNHQQT2Y7REC,2,5,158,13089,2kFemale/F836,2kFemale/F600,1,0,2kFemale/F600,2kFemale/F836,2kFemale/F630
3,378XPAWRUDJ6TC0WGH3UWZUVE24AIY,A1P8M5BKOTAA8I,3LG268AV38CKP4MYW6UNHQQT2Y7REC,2,5,159,3721,2kFemale/F579,2kFemale/F651,2,1,2kFemale/F50,2kFemale/F651,2kFemale/F579
3,378XPAWRUDJ6TC0WGH3UWZUVE24AIY,A1P8M5BKOTAA8I,3LG268AV38CKP4MYW6UNHQQT2Y7REC,2,5,160,3009,2kFemale/F229,2kFemale/F569,1,2,2kFemale/F401,2kFemale/F229,2kFemale/F569
3,378XPAWRUDJ6TC0WGH3UWZUVE24AIY,A1P8M5BKOTAA8I,3LG268AV38CKP4MYW6UNHQQT2Y7REC,2,5,161,6383,2kFemale/F861,2kFemale/F171,2,0,2kFemale/F171,2kFemale/F105,2kFemale/F861
3,378XPAWRUDJ6TC0WGH3UWZUVE24AIY,A1P8M5BKOTAA8I,3LG268AV38CKP4MYW6UNHQQT2Y7REC,2,5,162,5941,2kFemale/F945,2kFemale/F490,1,0,2kFemale/F490,2kFemale/F945,2kFemale/F434
3,378XPAWRUDJ6TC0WGH3UWZUVE24AIY,A1P8M5BKOTAA8I,3LG268AV38CKP4MYW6UNHQQT2Y7REC,2,5,163,9691,2kFemale/F560,2kFemale/F204,1,0,2kFemale/F204,2kFemale/F560,2kFemale/F136
3,378XPAWRUDJ6TC0WGH3UWZUVE24AIY,A1P8M5BKOTAA8I,3LG268AV38CKP4MYW6UNHQQT2Y7REC,2,5,164,6046,2kFemale/F161,2kFemale/F122,2,1,2kFemale/F530,2kFemale/F122,2kFemale/F161
3,378XPAWRUDJ6TC0WGH3UWZUVE24AIY,A1P8M5BKOTAA8I,3LG268AV38CKP4MYW6UNHQQT2Y7REC,2,5,165,7373,2kFemale/F81,2kFemale/F276,2,0,2kFemale/F276,2kFemale/F66,2kFemale/F81
3,378XPAWRUDJ6TC0WGH3UWZUVE24AIY,A1P8M5BKOTAA8I,3LG268AV38CKP4MYW6UNHQQT2Y7REC,2,5,166,8967,2kFemale/F707,2kFemale/F780,2,0,2kFemale/F780,2kFemale/F675,2kFemale/F707
3,378XPAWRUDJ6TC0WGH3UWZUVE24AIY,A1P8M5BKOTAA8I,3LG268AV38CKP4MYW6UNHQQT2Y7REC,2,5,167,7103,2kFemale/F115,2kFemale/F833,0,2,2kFemale/F115,2kFemale/F542,2kFemale/F833
3,378XPAWRUDJ6TC0WGH3UWZUVE24AIY,A1P8M5BKOTAA8I,3LG268AV38CKP4MYW6UNHQQT2Y7REC,2,5,168,5813,2kFemale/F237,2kFemale/F361,1,0,2kFemale/F361,2kFemale/F237,2kFemale/F241
3,378XPAWRUDJ6TC0WGH3UWZUVE24AIY,A1P8M5BKOTAA8I,3LG268AV38CKP4MYW6UNHQQT2Y7REC,2,5,169,4378,2kFemale/F732,2kFemale/F48,0,1,2kFemale/F732,2kFemale/F48,2kFemale/F652
3,378XPAWRUDJ6TC0WGH3UWZUVE24AIY,A1P8M5BKOTAA8I,3LG268AV38CKP4MYW6UNHQQT2Y7REC,2,5,170,6558,2kFemale/F471,2kFemale/F535,1,0,2kFemale/F535,2kFemale/F471,2kFemale/F65
3,378XPAWRUDJ6TC0WGH3UWZUVE24AIY,A1P8M5BKOTAA8I,3LG268AV38CKP4MYW6UNHQQT2Y7REC,2,5,171,6986,2kFemale/F304,2kFemale/F774,2,0,2kFemale/F774,2kFemale/F362,2kFemale/F304
3,378XPAWRUDJ6TC0WGH3UWZUVE24AIY,A1P8M5BKOTAA8I,3LG268AV38CKP4MYW6UNHQQT2Y7REC,2,5,172,4730,2kFemale/F774,2kFemale/F114,2,0,2kFemale/F114,2kFemale/F362,2kFemale/F774
3,378XPAWRUDJ6TC0WGH3UWZUVE24AIY,A1P8M5BKOTAA8I,3LG268AV38CKP4MYW6UNHQQT2Y7REC,2,5,173,3639,2kFemale/F663,2kFemale/F216,2,0,2kFemale/F216,2kFemale/F379,2kFemale/F663
3,378XPAWRUDJ6TC0WGH3UWZUVE24AIY,A1P8M5BKOTAA8I,3LG268AV38CKP4MYW6UNHQQT2Y7REC,2,5,174,2952,2kFemale/F544,2kFemale/F232,2,1,2kFemale/F603,2kFemale/F232,2kFemale/F544
3,378XPAWRUDJ6TC0WGH3UWZUVE24AIY,A1P8M5BKOTAA8I,3LG268AV38CKP4MYW6UNHQQT2Y7REC,2,5,175,6294,2kFemale/F711,2kFemale/F930,1,2,2kFemale/F592,2kFemale/F711,2kFemale/F930
3,378XPAWRUDJ6TC0WGH3UWZUVE24AIY,A1P8M5BKOTAA8I,3LG268AV38CKP4MYW6UNHQQT2Y7REC,2,5,176,9962,2kFemale/F494,2kFemale/F869,0,2,2kFemale/F494,2kFemale/F597,2kFemale/F869
3,378XPAWRUDJ6TC0WGH3UWZUVE24AIY,A1P8M5BKOTAA8I,3LG268AV38CKP4MYW6UNHQQT2Y7REC,2,5,177,5858,2kFemale/F52,2kFemale/F880,1,0,2kFemale/F880,2kFemale/F52,2kFemale/F502
3,378XPAWRUDJ6TC0WGH3UWZUVE24AIY,A1P8M5BKOTAA8I,3LG268AV38CKP4MYW6UNHQQT2Y7REC,2,5,178,7655,2kFemale/F3,2kFemale/F600,1,0,2kFemale/F600,2kFemale/F3,2kFemale/F362
3,378XPAWRUDJ6TC0WGH3UWZUVE24AIY,A1P8M5BKOTAA8I,3LG268AV38CKP4MYW6UNHQQT2Y7REC,2,5,179,8330,2kFemale/F609,2kFemale/F139,2,0,2kFemale/F139,2kFemale/F862,2kFemale/F609
3,378XPAWRUDJ6TC0WGH3UWZUVE24AIY,A1P8M5BKOTAA8I,3LG268AV38CKP4MYW6UNHQQT2Y7REC,2,5,180,4983,2kFemale/F886,2kFemale/F156,2,0,2kFemale/F156,2kFemale/F539,2kFemale/F886
3,378XPAWRUDJ6TC0WGH3UWZUVE24AIY,A1P8M5BKOTAA8I,3LG268AV38CKP4MYW6UNHQQT2Y7REC,2,5,181,11127,2kFemale/F907,2kFemale/F115,1,0,2kFemale/F115,2kFemale/F907,2kFemale/F929
3,378XPAWRUDJ6TC0WGH3UWZUVE24AIY,A1P8M5BKOTAA8I,3LG268AV38CKP4MYW6UNHQQT2Y7REC,2,5,182,4985,2kFemale/F454,2kFemale/F351,1,2,2kFemale/F567,2kFemale/F454,2kFemale/F351
3,378XPAWRUDJ6TC0WGH3UWZUVE24AIY,A1P8M5BKOTAA8I,3LG268AV38CKP4MYW6UNHQQT2Y7REC,2,5,183,3043,2kFemale/F705,2kFemale/F135,0,1,2kFemale/F705,2kFemale/F135,2kFemale/F417
3,378XPAWRUDJ6TC0WGH3UWZUVE24AIY,A1P8M5BKOTAA8I,3LG268AV38CKP4MYW6UNHQQT2Y7REC,2,5,184,6982,2kFemale/F486,2kFemale/F585,1,2,2kFemale/F866,2kFemale/F486,2kFemale/F585
3,378XPAWRUDJ6TC0WGH3UWZUVE24AIY,A1P8M5BKOTAA8I,3LG268AV38CKP4MYW6UNHQQT2Y7REC,2,5,185,4007,2kFemale/F607,2kFemale/F94,2,0,2kFemale/F94,2kFemale/F700,2kFemale/F607
3,378XPAWRUDJ6TC0WGH3UWZUVE24AIY,A1P8M5BKOTAA8I,3LG268AV38CKP4MYW6UNHQQT2Y7REC,2,5,186,7793,2kFemale/F239,2kFemale/F81,1,0,2kFemale/F81,2kFemale/F239,2kFemale/F772
3,378XPAWRUDJ6TC0WGH3UWZUVE24AIY,A1P8M5BKOTAA8I,3LG268AV38CKP4MYW6UNHQQT2Y7REC,2,5,187,5527,2kFemale/F939,2kFemale/F651,2,0,2kFemale/F651,2kFemale/F341,2kFemale/F939
3,378XPAWRUDJ6TC0WGH3UWZUVE24AIY,A1P8M5BKOTAA8I,3LG268AV38CKP4MYW6UNHQQT2Y7REC,2,5,188,6938,2kFemale/F882,2kFemale/F171,1,2,2kFemale/F758,2kFemale/F882,2kFemale/F171
3,378XPAWRUDJ6TC0WGH3UWZUVE24AIY,A1P8M5BKOTAA8I,3LG268AV38CKP4MYW6UNHQQT2Y7REC,2,5,189,6345,2kFemale/F653,2kFemale/F444,1,2,2kFemale/F747,2kFemale/F653,2kFemale/F444
3,378XPAWRUDJ6TC0WGH3UWZUVE24AIY,A1P8M5BKOTAA8I,3LG268AV38CKP4MYW6UNHQQT2Y7REC,2,5,190,2512,2kFemale/F842,2kFemale/F678,1,2,2kFemale/F233,2kFemale/F842,2kFemale/F678
3,378XPAWRUDJ6TC0WGH3UWZUVE24AIY,A1P8M5BKOTAA8I,3LG268AV38CKP4MYW6UNHQQT2Y7REC,2,5,191,4599,2kFemale/F538,2kFemale/F179,0,1,2kFemale/F538,2kFemale/F179,2kFemale/F506
3,378XPAWRUDJ6TC0WGH3UWZUVE24AIY,A1P8M5BKOTAA8I,3LG268AV38CKP4MYW6UNHQQT2Y7REC,2,5,192,3772,2kFemale/F809,2kFemale/F302,2,0,2kFemale/F302,2kFemale/F74,2kFemale/F809
3,378XPAWRUDJ6TC0WGH3UWZUVE24AIY,A1P8M5BKOTAA8I,3LG268AV38CKP4MYW6UNHQQT2Y7REC,2,5,193,5723,2kFemale/F52,2kFemale/F474,2,0,2kFemale/F474,2kFemale/F22,2kFemale/F52
3,378XPAWRUDJ6TC0WGH3UWZUVE24AIY,A1P8M5BKOTAA8I,3LG268AV38CKP4MYW6UNHQQT2Y7REC,2,5,194,2647,2kFemale/F248,2kFemale/F366,1,0,2kFemale/F366,2kFemale/F248,2kFemale/F835
3,378XPAWRUDJ6TC0WGH3UWZUVE24AIY,A1P8M5BKOTAA8I,3LG268AV38CKP4MYW6UNHQQT2Y7REC,2,5,195,4628,2kFemale/F195,2kFemale/F753,2,1,2kFemale/F492,2kFemale/F753,2kFemale/F195
3,378XPAWRUDJ6TC0WGH3UWZUVE24AIY,A1P8M5BKOTAA8I,3LG268AV38CKP4MYW6UNHQQT2Y7REC,3,5,196,1411,2kFemale/F197,2kFemale/F197,true,true,2kFemale/F197,2kFemale/F197,2kFemale/F187
3,378XPAWRUDJ6TC0WGH3UWZUVE24AIY,A1P8M5BKOTAA8I,3LG268AV38CKP4MYW6UNHQQT2Y7REC,2,5,197,5646,2kFemale/F62,2kFemale/F400,0,2,2kFemale/F62,2kFemale/F712,2kFemale/F400
3,378XPAWRUDJ6TC0WGH3UWZUVE24AIY,A1P8M5BKOTAA8I,3LG268AV38CKP4MYW6UNHQQT2Y7REC,2,5,198,3953,2kFemale/F371,2kFemale/F633,1,0,2kFemale/F633,2kFemale/F371,2kFemale/F704
3,378XPAWRUDJ6TC0WGH3UWZUVE24AIY,A1P8M5BKOTAA8I,3LG268AV38CKP4MYW6UNHQQT2Y7REC,2,5,199,6750,2kFemale/F270,2kFemale/F936,2,0,2kFemale/F936,2kFemale/F809,2kFemale/F270
3,378XPAWRUDJ6TC0WGH3UWZUVE24AIY,A1P8M5BKOTAA8I,3LG268AV38CKP4MYW6UNHQQT2Y7REC,2,5,200,4141,2kFemale/F542,2kFemale/F249,1,0,2kFemale/F249,2kFemale/F542,2kFemale/F237
3,378XPAWRUDJ6TC0WGH3UWZUVE24AIY,A1P8M5BKOTAA8I,3LG268AV38CKP4MYW6UNHQQT2Y7REC,2,5,201,5560,2kFemale/F443,2kFemale/F135,2,0,2kFemale/F135,2kFemale/F851,2kFemale/F443
